Condition,Item,ItemNum,List,Order,RT,Response,Run,SubjID,TrialNumber,TrialOnset,Unnamed: 11,Unnamed: 12
FIX,+,0,2,12,0,0,6,FED_20200130c_3T2,1,0,,
WCOMP,CHALK     STAIRS     FISH,40,2,12,0,0,6,FED_20200130c_3T2,2,14,,
WCOMP,CHALK     BENCH     MICROSCOPE     CHICKEN,38,2,12,0,0,6,FED_20200130c_3T2,3,17,,
WCOMP,HOLE     DEER     SWIMMING POOL,9,2,12,0,0,6,FED_20200130c_3T2,4,20,,
WCOMP,CHAIR     COCKTAIL     DEER,60,2,12,0,0,6,FED_20200130c_3T2,5,23,,
SCOMP,TWO GIRLS ARE WASHING A DOG,27,2,12,0,0,6,FED_20200130c_3T2,6,28,,
SCOMP,A LITTLE GIRL IS WALKING ON A TREADMILL,35,2,12,0,0,6,FED_20200130c_3T2,7,31,,
SCOMP,A YOUNG GIRL IS CLIMBING A FENCE,43,2,12,0,0,6,FED_20200130c_3T2,8,34,,
SCOMP,A GIRL IS PLAYING WITH A TOY TRAIN,14,2,12,0,0,6,FED_20200130c_3T2,9,37,,
WPROD,flower_19s-train_10n.jpg,99,2,12,0,f[-wet tra9j,6,FED_20200130c_3T2,10,42,,
WPROD,ocean-918999_960_720-pool_table_03s-shopping-874974_960_720-map_08s.jpg,78,2,12,0,-ceak =--[m ysj,6,FED_20200130c_3T2,11,49,,
WPROD,bubble_01b-hand_04s-canoe_12s.jpg,83,2,12,0,j9jj[rd iskg vs,6,FED_20200130c_3T2,12,56,,
WPROD,jump_rope_05s-book_08s-baby_05s-flower_19s.jpg,80,2,12,0,i9l-m t0=r jsj8 u[0e,6,FED_20200130c_3T2,13,63,,
EVSEM,4968012871.jpg,72,2,12,0,1,6,FED_20200130c_3T2,14,72,,
EVSEM,5505219003.jpg,128,2,12,0,2,6,FED_20200130c_3T2,15,75,,
EVSEM,5283494184.jpg,107,2,12,0,1,6,FED_20200130c_3T2,16,78,,
EVSEM,4753970630.jpg,122,2,12,0,1,6,FED_20200130c_3T2,17,81,,
SPROD,4436749692.jpg,68,2,12,0,ras9jfg a jew-0a-er,6,FED_20200130c_3T2,18,86,,
SPROD,5925544950.jpg,125,2,12,0,gu9su,6,FED_20200130c_3T2,19,93,,
SPROD,8057415401.jpg,118,2,12,0,[a90kg vievoers,6,FED_20200130c_3T2,20,100,,
SPROD,5505219003.jpg,128,2,12,0,re0t0kg a [ec0te,6,FED_20200130c_3T2,21,107,,
NPROD,PRAUGHT    GWAWK    SNEASH    PRUICE,19,2,12,0,r0uit feajeroo ,6,FED_20200130c_3T2,22,116,,
NPROD,GWEAGUE    DRUS    FLIMN    SHRUV,56,2,12,0,fjefewaf9e fgr9su dp9,6,FED_20200130c_3T2,23,123,,
NPROD,GLERK    JUTH    RHALP    SHRIECE,39,2,12,0,fp[erp u9tu ria=[ s,6,FED_20200130c_3T2,24,130,,
NPROD,BLORQUE    GHIMP    PHRAUCE    TRUME,55,2,12,0,h[0rg9w f8t0k- n -u,6,FED_20200130c_3T2,25,137,,
FIX,+,0,2,12,0,0,6,FED_20200130c_3T2,26,144,,
NPROD,THOFF    SNITH    FROOP    PHIMP,28,2,12,0,ti--dd fka0rti ,6,FED_20200130c_3T2,27,158,,
NPROD,THWOQUE    SMESH    PHLIEVE    THWEMP,25,2,12,0,fg-tt=~git-ve9 fkeci =,6,FED_20200130c_3T2,28,165,,
NPROD,SLURCH    SNERTH    THWANGE    DRETE,24,2,12,0,f[9vu fjeru tue,6,FED_20200130c_3T2,29,172,,
NPROD,SPREETH    SHRADGE    PHRAW    PLONCH,4,2,12,0,f=trryu fiaru,6,FED_20200130c_3T2,30,179,,
SPROD,4464176007.jpg,119,2,12,0,readf0kg a rj=er-=er,6,FED_20200130c_3T2,31,188,,
SPROD,5194027799.jpg,79,2,12,0,i-[g0k a f-s,6,FED_20200130c_3T2,32,195,,
SPROD,4786057236.jpg,78,2,12,0,[a9-klg-ak=,6,FED_20200130c_3T2,33,202,,
SPROD,104669470.jpg,70,2,12,0,varr9kg a fr90t ,6,FED_20200130c_3T2,34,209,,
EVSEM,36979.jpg,66,2,12,0,1,6,FED_20200130c_3T2,35,218,,
EVSEM,2763354860.jpg,127,2,12,0,2,6,FED_20200130c_3T2,36,221,,
EVSEM,12142386.jpg,91,2,12,0,2,6,FED_20200130c_3T2,37,224,,
EVSEM,4400746838.jpg,71,2,12,0,2,6,FED_20200130c_3T2,38,227,,
WPROD,swing_set_03s-hula_hoop_10s-shovel_09s-hand_04s.jpg,119,2,12,0,fe0kg fet i9[a ,6,FED_20200130c_3T2,39,232,,
WPROD,snow_04s-tooth_09s.jpg,96,2,12,0,i-teeti dka=w,6,FED_20200130c_3T2,40,239,,
WPROD,train_10n-balls-272409_960_720.jpg,121,2,12,0,tra0k ja[[s,6,FED_20200130c_3T2,41,246,,
WPROD,guitar_12s-house-2365524_960_720-dish_11s.jpg,107,2,12,0,i90ara v9=s =,6,FED_20200130c_3T2,42,253,,
SCOMP,A WOMAN IS EATING NOODLES,42,2,12,0,0,6,FED_20200130c_3T2,43,262,,
SCOMP,A MAN IS PLAYING THE FLUTE,47,2,12,0,0,6,FED_20200130c_3T2,44,265,,
SCOMP,A MAN IS SWEEPING THE SIDEWALK,25,2,12,0,0,6,FED_20200130c_3T2,45,268,,
SCOMP,A MAN IS SURFING,52,2,12,0,0,6,FED_20200130c_3T2,46,271,,
WCOMP,SHOWER     MOUNTAIN     PILLOW,50,2,12,0,0,6,FED_20200130c_3T2,47,276,,
WCOMP,SWIMMING POOL     TOOTHBRUSH     SNAIL     FENCE,53,2,12,0,0,6,FED_20200130c_3T2,48,279,,
WCOMP,ARM     DEER     BUBBLE,57,2,12,0,0,6,FED_20200130c_3T2,49,282,,
WCOMP,WAVE     TRAIN     RAILING,31,2,12,0,0,6,FED_20200130c_3T2,50,285,,
FIX,+,0,2,12,0,0,6,FED_20200130c_3T2,51,288,,
FIX,+,0,1,8,0,0,2,FED_20200130d_3T2,1,0,,
SPROD,4618092593.jpg,37,1,8,0,s;having their heads,2,FED_20200130d_3T2,2,14,,
SPROD,7028846053.jpg,42,1,8,0,eating noodles,2,FED_20200130d_3T2,3,21,,
SPROD,3665441862.jpg,43,1,8,0,climbing a fence,2,FED_20200130d_3T2,4,28,,
SPROD,6110845331.jpg,24,1,8,0,drawing something,2,FED_20200130d_3T2,5,35,,
NPROD,KILCH    PHROOSE    WHALSE    THRARCE,1,1,8,0,kilch phroosewhalsethrarc,2,FED_20200130d_3T2,6,44,,
NPROD,SPREETH    SHRADGE    PHRAW    PLONCH,4,1,8,0,spreethshradgephrawplonch,2,FED_20200130d_3T2,7,51,,
NPROD,FRUZZ    PHREEP    SHRY    SPLASS,6,1,8,0,fruzzphreepsrysplass,2,FED_20200130d_3T2,8,58,,
NPROD,SWOILE    PRESH    DWESH    SKABE,35,1,8,0,swoile presh drwesh kabe,2,FED_20200130d_3T2,9,65,,
WCOMP,MAGNIFYING GLASS     BIRD     SKI,70,1,8,0,0,2,FED_20200130d_3T2,10,74,,
WCOMP,NEWSPAPER     WINDOW,115,1,8,0,0,2,FED_20200130d_3T2,11,77,,
WCOMP,BEACH     POOL TABLE     GROCERY BAG     MAP,78,1,8,0,0,2,FED_20200130d_3T2,12,80,,
WCOMP,FLUTE     PAINTBRUSH     CHICKEN,69,1,8,0,0,2,FED_20200130d_3T2,13,83,,
SCOMP,A YOUNG GIRL IS SITTING ON A RAILING,76,1,8,0,0,2,FED_20200130d_3T2,14,88,,
SCOMP,A BOY IS PLAYING THE PIANO,116,1,8,0,0,2,FED_20200130d_3T2,15,91,,
SCOMP,A MAN IS JUGGLING BALLS,91,1,8,0,0,2,FED_20200130d_3T2,16,94,,
SCOMP,A MAN IS WASHING WINDOWS,96,1,8,0,0,2,FED_20200130d_3T2,17,97,,
WPROD,saxophone_09s-couch_18n-jump_rope_05s-grass-220465_960_720.jpg,4,1,8,0,saxaphone couch jumprope yard,2,FED_20200130d_3T2,18,102,,
WPROD,fence_18s-sewing_machine_12s-suitcase_01b.jpg,12,1,8,0,fence sewing machine suitcae,2,FED_20200130d_3T2,19,109,,
WPROD,hand_04s-rock_09s-treadmill_01b-broom_04s.jpg,15,1,8,0,hand stones treadmill broom,2,FED_20200130d_3T2,20,116,,
WPROD,paintbrush_10s-shower_13n-pool_table_03s.jpg,1,1,8,0,bruch shower pool table,2,FED_20200130d_3T2,21,123,,
EVSEM,6845394024.jpg,7,1,8,0,1,2,FED_20200130d_3T2,22,132,,
EVSEM,4607606901.jpg,3,1,8,0,2,2,FED_20200130d_3T2,23,135,,
EVSEM,5220880759.jpg,16,1,8,0,1,2,FED_20200130d_3T2,24,138,,
EVSEM,7188003.jpg,51,1,8,0,2,2,FED_20200130d_3T2,25,141,,
FIX,+,0,1,8,0,0,2,FED_20200130d_3T2,26,144,,
EVSEM,5194023863.jpg,28,1,8,0,2,2,FED_20200130d_3T2,27,158,,
EVSEM,4585839343.jpg,44,1,8,0,2,2,FED_20200130d_3T2,28,161,,
EVSEM,5241718422.jpg,19,1,8,0,1,2,FED_20200130d_3T2,29,164,,
EVSEM,7819772858.jpg,52,1,8,0,2,2,FED_20200130d_3T2,30,167,,
WPROD,swimming_pool_18s-baby_05s-sidewalk-3999780_960_720.jpg,47,1,8,0,swp,2,FED_20200130d_3T2,31,172,,
WPROD,crayon_17s-hurdle-812853_960_720-shopping-874974_960_720.jpg,30,1,8,0,[crayons hurdle bag of frui,2,FED_20200130d_3T2,32,179,,
WPROD,sand_03s-bubble_01b-accordion_12s.jpg,44,1,8,0,sand bubble accordian,2,FED_20200130d_3T2,33,186,,
WPROD,toothbrush_08s-bottle_06s-camera1_04s.jpg,16,1,8,0,brush bottle camera,2,FED_20200130d_3T2,34,193,,
SCOMP,A MAN IS BLOWING BUBBLES,89,1,8,0,0,2,FED_20200130d_3T2,35,202,,
SCOMP,A LITTLE GIRL IS EATING A STRAWBERRY,104,1,8,0,0,2,FED_20200130d_3T2,36,205,,
SCOMP,A YOUNG GIRL IS ROCK CLIMBING,127,1,8,0,0,2,FED_20200130d_3T2,37,208,,
SCOMP,A MAN IS READING A BOOK,74,1,8,0,0,2,FED_20200130d_3T2,38,211,,
WCOMP,HARP     STRAWBERRY     SAND,127,1,8,0,0,2,FED_20200130d_3T2,39,216,,
WCOMP,CASTLE     DANDELION     VIOLIN,101,1,8,0,0,2,FED_20200130d_3T2,40,219,,
WCOMP,MICROSCOPE     BRUSH,116,1,8,0,0,2,FED_20200130d_3T2,41,222,,
WCOMP,SCISSORS     BEACH     POOL TABLE     PIANO,128,1,8,0,0,2,FED_20200130d_3T2,42,225,,
NPROD,TWACK    GWURP    TWONT    SPRATH,7,1,8,0, swack gwurptwontsprath,2,FED_20200130d_3T2,43,230,,
NPROD,SCRUSK    SPRIKE    FLARGE    TWUIFF,47,1,8,0,scrusk sprikeflargetwuiff,2,FED_20200130d_3T2,44,237,,
NPROD,PHLOUL    THRAB    TWARSE    TWAUN,18,1,8,0,phloulthrabtwarsetwaun,2,FED_20200130d_3T2,45,244,,
NPROD,SPLYBE    RHUNGE    VIFF    SPLIEVE,57,1,8,0,spluberhungeviffsplieve,2,FED_20200130d_3T2,46,251,,
SPROD,5584269779.jpg,57,1,8,0,riding a hourse,2,FED_20200130d_3T2,47,260,,
SPROD,6354735653.jpg,62,1,8,0,climbing a rock,2,FED_20200130d_3T2,48,267,,
SPROD,7995263133.jpg,64,1,8,0,sleeping on a striped pillow,2,FED_20200130d_3T2,49,274,,
SPROD,5840187633.jpg,35,1,8,0,waqlwalihng on a treadmill,2,FED_20200130d_3T2,50,281,,
FIX,+,0,1,8,0,0,2,FED_20200130d_3T2,51,288,,
FIX,+,0,1,7,0,0,1,FED_20200130d_3T2,1,0,,
NPROD,THRILT    PROIL    VODGE    SPLOOGE,48,1,7,0,thriltproil,1,FED_20200130d_3T2,2,14,,
NPROD,SPRASH    SPROAT    STREVE    BLAUB,37,1,7,0,sprashsproatstrecblaub,1,FED_20200130d_3T2,3,21,,
NPROD,DWURB    SMULT    ZOUTE    DREALT,46,1,7,0,dwurbsmultzouteddrealt,1,FED_20200130d_3T2,4,28,,
NPROD,PHROAL    GLETT    BLEZ    SWEACH,15,1,7,0,phrolalglettblezweach,1,FED_20200130d_3T2,5,35,,
WCOMP,FLUTE     SIDEWALK     COCKTAIL     RAILING,108,1,7,0,0,1,FED_20200130d_3T2,6,44,,
WCOMP,TOY TRAIN     ACCORDION     CHICKEN,73,1,7,0,0,1,FED_20200130d_3T2,7,47,,
WCOMP,COUCH     FISH,109,1,7,0,0,1,FED_20200130d_3T2,8,50,,
WCOMP,LEAVES     PIPE     COLUMN,71,1,7,0,0,1,FED_20200130d_3T2,9,53,,
SCOMP,A WOMAN IS WASHING THE DISHES,121,1,7,0,0,1,FED_20200130d_3T2,10,58,,
SCOMP,A WOMAN IS JOGGING,115,1,7,0,0,1,FED_20200130d_3T2,11,61,,
SCOMP,A BABY IS CRYING,110,1,7,0,0,1,FED_20200130d_3T2,12,64,,
SCOMP,A MAN IS READING THE NEWSPAPER,68,1,7,0,0,1,FED_20200130d_3T2,13,67,,
WPROD,shower_13n-matterhorn-425134_960_720-pillow_13n.jpg,50,1,7,0,showermoujntaiunpillows,1,FED_20200130d_3T2,14,72,,
WPROD,noodle_12s-matterhorn-425134_960_720-plant_09s.jpg,22,1,7,0,pagettimountainleaf,1,FED_20200130d_3T2,15,79,,
WPROD,chalk_13s-bench_06s-microscope_07s-chicken2_07s.jpg,38,1,7,0,chalkbenchmicroscopechicken,1,FED_20200130d_3T2,16,86,,
WPROD,couch_18n-bowl_08s-swimming_pool_18s-swing_set_03s.jpg,46,1,7,0,couchbowlpolswing,1,FED_20200130d_3T2,17,93,,
EVSEM,807129.jpg,47,1,7,0,1,1,FED_20200130d_3T2,18,102,,
EVSEM,4121133646.jpg,45,1,7,0,2,1,FED_20200130d_3T2,19,105,,
EVSEM,4705826062.jpg,49,1,7,0,1,1,FED_20200130d_3T2,20,108,,
EVSEM,4050265867.jpg,18,1,7,0,0,1,FED_20200130d_3T2,21,111,,
SPROD,4896173039.jpg,22,1,7,0,reading,1,FED_20200130d_3T2,22,116,,
SPROD,5241718422.jpg,19,1,7,0,womanrunning ona treadmill,1,FED_20200130d_3T2,23,123,,
SPROD,807129.jpg,47,1,7,0,playikngthe flute,1,FED_20200130d_3T2,24,130,,
SPROD,7380263314.jpg,1,1,7,0,digging in the sand,1,FED_20200130d_3T2,25,137,,
FIX,+,0,1,7,0,0,1,FED_20200130d_3T2,26,144,,
SPROD,4607606901.jpg,3,1,7,0,pettiga goat,1,FED_20200130d_3T2,27,158,,
SPROD,5543900069.jpg,40,1,7,0,blow driing hair,1,FED_20200130d_3T2,28,165,,
SPROD,33256003.jpg,36,1,7,0,lipstick,1,FED_20200130d_3T2,29,172,,
SPROD,6237339784.jpg,30,1,7,0,climbing a tree,1,FED_20200130d_3T2,30,179,,
EVSEM,7028846053.jpg,42,1,7,0,1,1,FED_20200130d_3T2,31,188,,
EVSEM,6681702227.jpg,33,1,7,0,1,1,FED_20200130d_3T2,32,191,,
EVSEM,4855357158.jpg,23,1,7,0,2,1,FED_20200130d_3T2,33,194,,
EVSEM,325742196.jpg,4,1,7,0,1,1,FED_20200130d_3T2,34,197,,
WPROD,piano_11n-frisbee_11s-stair_16s-apple_10s.jpg,7,1,7,0,[ianostairs a[[;e frosbee ,1,FED_20200130d_3T2,35,202,,
WPROD,shirt_02s-puppy_01b-house-2365524_960_720-leaves-1721983_960_720.jpg,8,1,7,0,"sjort dpg,ira;",1,FED_20200130d_3T2,36,209,,
WPROD,horse_15s-telescope_03n-shopping_cart_07s.jpg,32,1,7,0,hjjprsete;escp[e cart,1,FED_20200130d_3T2,37,216,,
WPROD,ski_06s-shopping-874974_960_720-flower_19s.jpg,28,1,7,0,slos bag f;pwer,1,FED_20200130d_3T2,38,223,,
SCOMP,TWO OLDER MEN ARE WALKING ON THE BEACH,69,1,7,0,0,1,FED_20200130d_3T2,39,232,,
SCOMP,A WOMAN IS CARRYING A BOWL OF FRUIT ON HER HEAD,70,1,7,0,0,1,FED_20200130d_3T2,40,235,,
SCOMP,A WOMAN IS ROLLER SKATING,111,1,7,0,0,1,FED_20200130d_3T2,41,238,,
SCOMP,TWO MEN ARE PLAYING CHECKERS,118,1,7,0,0,1,FED_20200130d_3T2,42,241,,
WCOMP,BEACH     ARM     ROCK     RAZOR,72,1,7,0,0,1,FED_20200130d_3T2,43,246,,
WCOMP,CHALKBOARD     DOLLS,102,1,7,0,0,1,FED_20200130d_3T2,44,249,,
WCOMP,ACCORDION     LADDER     APPLE,84,1,7,0,0,1,FED_20200130d_3T2,45,252,,
WCOMP,FRUIT     PUPPY,123,1,7,0,0,1,FED_20200130d_3T2,46,255,,
NPROD,DROOCH    WRILK    SPLISK    TROME,45,1,7,0,droochwrilk splisk trome ,1,FED_20200130d_3T2,47,260,,
NPROD,SLOIN    DWALF    THRALC    FRALK,58,1,7,0,sloin dwalf thralc fralk,1,FED_20200130d_3T2,48,267,,
NPROD,PHLIN    STRIDGE    SKUS    DWIB,51,1,7,0,plin stridge skus dwib ,1,FED_20200130d_3T2,49,274,,
NPROD,WHOOB    GLURE    SHRUTCH    SHREAL,5,1,7,0,wghoob glure shrutch shreal,1,FED_20200130d_3T2,50,281,,
FIX,+,0,1,7,0,0,1,FED_20200130d_3T2,51,288,,
FIX,+,0,2,5,0,0,2,FED_20191204a_3T2,1,0,,
WCOMP,FENCE     SKATEBOARD     HORSE     TRAMPOLINE,42,2,5,0,0,2,FED_20191204a_3T2,2,14,,
WCOMP,CELLPHONE     DEER     CUCUMBER,55,2,5,0,0,2,FED_20191204a_3T2,3,17,,
WCOMP,BIRD     RAZOR,25,2,5,0,0,2,FED_20191204a_3T2,4,20,,
WCOMP,VIOLIN     IRON     NEWSPAPER     HAND,39,2,5,0,0,2,FED_20191204a_3T2,5,23,,
NPROD,PHRYBE    SPRELM    SPLURE    PRULGE,31,2,5,0,0,2,FED_20191204a_3T2,6,28,,
NPROD,ZOOTH    GLANC    PHLOURGE    PHLIDGE,41,2,5,0,0,2,FED_20191204a_3T2,7,35,,
NPROD,GWEAGUE    DRUS    FLIMN    SHRUV,56,2,5,0,0,2,FED_20191204a_3T2,8,42,,
NPROD,SHRAIM    THUICE    SKISE    SNARSH,13,2,5,0,0,2,FED_20191204a_3T2,9,49,,
SPROD,5565536413.jpg,126,2,5,0,unintelligible,2,FED_20191204a_3T2,10,58,,
SPROD,4322110026.jpg,101,2,5,0,unintelligible,2,FED_20191204a_3T2,11,65,,
SPROD,3673032164.jpg,117,2,5,0,unintelligible,2,FED_20191204a_3T2,12,72,,
SPROD,4986581949.jpg,81,2,5,0,unintelligible,2,FED_20191204a_3T2,13,79,,
EVSEM,4610962283.jpg,97,2,5,0,1,2,FED_20191204a_3T2,14,88,,
EVSEM,5505219003.jpg,128,2,5,0,1,2,FED_20191204a_3T2,15,91,,
EVSEM,104669470.jpg,70,2,5,0,2,2,FED_20191204a_3T2,16,94,,
EVSEM,5334523454.jpg,120,2,5,0,2,2,FED_20191204a_3T2,17,97,,
WPROD,window_01b-shower_13n-chalkboard_08s.jpg,104,2,5,0,unintelligible,2,FED_20191204a_3T2,18,102,,
WPROD,snow_04s-cyprus-4026880_960_720-strawberry_04n.jpg,81,2,5,0,unintelligible,2,FED_20191204a_3T2,19,109,,
WPROD,saxophone_09s-camera1_04s-bowl_08s.jpg,92,2,5,0,unintelligible,2,FED_20191204a_3T2,20,116,,
WPROD,microscope_07s-brush_05s.jpg,116,2,5,0,unintelligible,2,FED_20191204a_3T2,21,123,,
SCOMP,A MAN IS SURFING,52,2,5,0,0,2,FED_20191204a_3T2,22,132,,
SCOMP,A WOMAN IS PUTTING ON A BOOT,63,2,5,0,0,2,FED_20191204a_3T2,23,135,,
SCOMP,A BABY IS CRAWLING ON THE FLOOR,10,2,5,0,0,2,FED_20191204a_3T2,24,138,,
SCOMP,A LITTLE BOY IS OPENING A PRESENT,15,2,5,0,0,2,FED_20191204a_3T2,25,141,,
FIX,+,0,2,5,0,0,2,FED_20191204a_3T2,26,144,,
SCOMP,A YOUNG GIRL IS CLIMBING A FENCE,43,2,5,0,0,2,FED_20191204a_3T2,27,158,,
SCOMP,A MAN IS CARRYING A CANOE,23,2,5,0,0,2,FED_20191204a_3T2,28,161,,
SCOMP,A WOMAN IS RIDING A HORSE,57,2,5,0,0,2,FED_20191204a_3T2,29,164,,
SCOMP,TWO KIDS ARE SHOVELING SNOW,56,2,5,0,0,2,FED_20191204a_3T2,30,167,,
WPROD,tree_12s-checkers_04s-treadmill_01b.jpg,76,2,5,0,unintelligible,2,FED_20191204a_3T2,31,172,,
WPROD,toothbrush_08s-cellphone_13s-map_08s.jpg,82,2,5,0,unintelligible,2,FED_20191204a_3T2,32,179,,
WPROD,lipstick_03s-flute_11s-castle-2462133_960_720-ball_05s.jpg,93,2,5,0,unintelligible,2,FED_20191204a_3T2,33,186,,
WPROD,accordion_12s-ladder_01b-apple_10s.jpg,84,2,5,0,unintelligible,2,FED_20191204a_3T2,34,193,,
EVSEM,8057415401.jpg,118,2,5,0,2,2,FED_20191204a_3T2,35,202,,
EVSEM,6160193920.jpg,90,2,5,0,2,2,FED_20191204a_3T2,36,205,,
EVSEM,4633221176.jpg,110,2,5,0,1,2,FED_20191204a_3T2,37,208,,
EVSEM,4597303045.jpg,73,2,5,0,2,2,FED_20191204a_3T2,38,211,,
SPROD,6552971469.jpg,102,2,5,0,unintelligible,2,FED_20191204a_3T2,39,216,,
SPROD,3660826540.jpg,99,2,5,0,unintelligible,2,FED_20191204a_3T2,40,223,,
SPROD,5334523454.jpg,120,2,5,0,unintelligible,2,FED_20191204a_3T2,41,230,,
SPROD,4548039526.jpg,69,2,5,0,unintelligible,2,FED_20191204a_3T2,42,237,,
NPROD,SLURCH    SNERTH    THWANGE    DRETE,24,2,5,0,unintelligible,2,FED_20191204a_3T2,43,246,,
NPROD,STRUTCH    SPRETE    SPREACE    SLEFF,59,2,5,0,unintelligible,2,FED_20191204a_3T2,44,253,,
NPROD,KNOOSH    SPLIEGE    THAIF    THOZ,60,2,5,0,unintelligible,2,FED_20191204a_3T2,45,260,,
NPROD,BLUIN    STRALF    TWUM    THRULCH,38,2,5,0,unintelligible,2,FED_20191204a_3T2,46,267,,
WCOMP,CHAIR     COCKTAIL     DEER,60,2,5,0,0,2,FED_20191204a_3T2,47,276,,
WCOMP,DOG     COLUMN     WOOD     HAIR,34,2,5,0,0,2,FED_20191204a_3T2,48,279,,
WCOMP,FRUIT     BOWLING BALL,63,2,5,0,0,2,FED_20191204a_3T2,49,282,,
WCOMP,BOWLING BALL     TREE     LIPSTICK,64,2,5,0,0,2,FED_20191204a_3T2,50,285,,
FIX,+,0,2,5,0,0,2,FED_20191204a_3T2,51,288,,
FIX,+,0,2,3,0,0,3,FED_20200213b_3T2,1,0,,
WPROD,magnifying_glass_05s-grass-220465_960_720.jpg,74,2,3,0,unintelligible,3,FED_20200213b_3T2,2,14,,
WPROD,flower_19s-train_10n.jpg,99,2,3,0,unintelligible,3,FED_20200213b_3T2,3,21,,
WPROD,bubble_01b-hand_04s-canoe_12s.jpg,83,2,3,0,unintelligible,3,FED_20200213b_3T2,4,28,,
WPROD,chalkboard_08s-doll_10s.jpg,102,2,3,0,unintelligible,3,FED_20200213b_3T2,5,35,,
SCOMP,A MAN IS ROCK CLIMBING,62,2,3,0,0,3,FED_20200213b_3T2,6,44,,
SCOMP,A BABY IS CRAWLING ON THE FLOOR,10,2,3,0,0,3,FED_20200213b_3T2,7,47,,
SCOMP,A YOUNG GIRL IS PETTING A DEER,3,2,3,0,0,3,FED_20200213b_3T2,8,50,,
SCOMP,A GIRL IS PLAYING WITH A TOY TRAIN,14,2,3,0,0,3,FED_20200213b_3T2,9,53,,
WCOMP,WOOD     TOOTH     DANDELION,33,2,3,0,0,3,FED_20200213b_3T2,10,58,,
WCOMP,DOG     COLUMN     WOOD     HAIR,34,2,3,0,0,3,FED_20200213b_3T2,11,61,,
WCOMP,COUCH     BOWL     SWIMMING POOL     SWING SET,46,2,3,0,0,3,FED_20200213b_3T2,12,64,,
WCOMP,BIRD     APPLE     SKATEBOARD,23,2,3,0,0,3,FED_20200213b_3T2,13,67,,
NPROD,SLEZ    TWAUL    GWUG    PHRIEF,61,2,3,0,unintelligible,3,FED_20200213b_3T2,14,72,,
NPROD,DRAUTCH    BLOURSE    SHRAMN    RHONK,2,2,3,0,unintelligible,3,FED_20200213b_3T2,15,79,,
NPROD,BLUIN    STRALF    TWUM    THRULCH,38,2,3,0,unintelligible,3,FED_20200213b_3T2,16,86,,
NPROD,SPLAUGE    SCRANK    PLEETH    DRYS,23,2,3,0,unintelligible,3,FED_20200213b_3T2,17,93,,
SPROD,3660826540.jpg,99,2,3,0,unintelligible,3,FED_20200213b_3T2,18,102,,
SPROD,4390269250.jpg,104,2,3,0,unintelligible,3,FED_20200213b_3T2,19,109,,
SPROD,2047030603.jpg,82,2,3,0,unintelligible,3,FED_20200213b_3T2,20,116,,
SPROD,4555514125.jpg,86,2,3,0,unintelligible,3,FED_20200213b_3T2,21,123,,
EVSEM,5194027799.jpg,79,2,3,0,unintelligible,3,FED_20200213b_3T2,22,132,,
EVSEM,4548039526.jpg,69,2,3,0,unintelligible,3,FED_20200213b_3T2,23,135,,
EVSEM,6552971469.jpg,102,2,3,0,unintelligible,3,FED_20200213b_3T2,24,138,,
EVSEM,2763354860.jpg,127,2,3,0,unintelligible,3,FED_20200213b_3T2,25,141,,
FIX,+,0,2,3,0,0,3,FED_20200213b_3T2,26,144,,
EVSEM,8088804992.jpg,115,2,3,0,unintelligible,3,FED_20200213b_3T2,27,158,,
EVSEM,4986581949.jpg,81,2,3,0,unintelligible,3,FED_20200213b_3T2,28,161,,
EVSEM,4555514125.jpg,86,2,3,0,unintelligible,3,FED_20200213b_3T2,29,164,,
EVSEM,3549408779.jpg,109,2,3,0,unintelligible,3,FED_20200213b_3T2,30,167,,
SPROD,41105465.jpg,80,2,3,0,unintelligible,3,FED_20200213b_3T2,31,172,,
SPROD,3652094744.jpg,65,2,3,0,unintelligible,3,FED_20200213b_3T2,32,179,,
SPROD,8189395281.jpg,111,2,3,0,unintelligible,3,FED_20200213b_3T2,33,186,,
SPROD,5505219003.jpg,128,2,3,0,unintelligible,3,FED_20200213b_3T2,34,193,,
NPROD,STRUTCH    SPRETE    SPREACE    SLEFF,59,2,3,0,unintelligible,3,FED_20200213b_3T2,35,202,,
NPROD,PLISC    SNULT    THUTCH    GWERF,43,2,3,0,unintelligible,3,FED_20200213b_3T2,36,209,,
NPROD,WHOOB    GLURE    SHRUTCH    SHREAL,5,2,3,0,unintelligible,3,FED_20200213b_3T2,37,216,,
NPROD,SMON    SPROE    PHLISH    SCROAT,8,2,3,0,unintelligible,3,FED_20200213b_3T2,38,223,,
WCOMP,VIOLIN     IRON     NEWSPAPER     HAND,39,2,3,0,0,3,FED_20200213b_3T2,39,232,,
WCOMP,BALL     TRAMPOLINE     PILLOW     VIOLIN,37,2,3,0,0,3,FED_20200213b_3T2,40,235,,
WCOMP,HOLE     DEER     SWIMMING POOL,9,2,3,0,0,3,FED_20200213b_3T2,41,238,,
WCOMP,SAXOPHONE     COUCH     JUMPROPE     LAWN,4,2,3,0,0,3,FED_20200213b_3T2,42,241,,
SCOMP,A BOY IS LOOKING THROUGH A TELESCOPE,13,2,3,0,0,3,FED_20200213b_3T2,43,246,,
SCOMP,A LITTLE GIRL IS BLOWING BUBBLES,20,2,3,0,0,3,FED_20200213b_3T2,44,249,,
SCOMP,A MAN IS LOOKING THROUGH A MICROSCOPE,58,2,3,0,0,3,FED_20200213b_3T2,45,252,,
SCOMP,THREE GIRLS ARE PLAYING JUMP ROPE,55,2,3,0,0,3,FED_20200213b_3T2,46,255,,
WPROD,snow_04s-cyprus-4026880_960_720-strawberry_04n.jpg,81,2,3,0,unintelligible,3,FED_20200213b_3T2,47,260,,
WPROD,boot_13s-checkers_04s-telescope_03n.jpg,85,2,3,0,unintelligible,3,FED_20200213b_3T2,48,267,,
WPROD,couch_18n-fish_09s.jpg,109,2,3,0,unintelligible,3,FED_20200213b_3T2,49,274,,
WPROD,book_08s-wood_05s-ball_05s-saxophone_09s.jpg,94,2,3,0,unintelligible,3,FED_20200213b_3T2,50,281,,
FIX,+,0,2,3,0,0,3,FED_20200213b_3T2,51,288,,
FIX,+,0,1,7,0,0,6,FED_20200205c_3T2,1,0,,
NPROD,STRUTCH    SPRETE    SPREACE    SLEFF,59,1,7,0,STRUTCH SPRETE SPREACE SLEFF,6,FED_20200205c_3T2,2,14,,
NPROD,PLOGUE    SCROOT    KNARP    SWEUTH,52,1,7,0,PLOGUE SCROOT KNARP SWEUTH,6,FED_20200205c_3T2,3,21,,
NPROD,SPLUNCH    SPLEAT    THERGE    DRELT,44,1,7,0,SPLUNCH SPLEAT THREGE DRELT,6,FED_20200205c_3T2,4,28,,
NPROD,SHRUKE    STRESK    SNEGG    WRULT,3,1,7,0,SHRUKE STRESK SNEGG WRULT,6,FED_20200205c_3T2,5,35,,
WCOMP,FLUTE     PAINTBRUSH     CHICKEN,69,1,7,0,0,6,FED_20200205c_3T2,6,44,,
WCOMP,TOY TRAIN     ACCORDION     CHICKEN,73,1,7,0,0,6,FED_20200205c_3T2,7,47,,
WCOMP,SCISSORS     CASTLE     BENCH,117,1,7,0,0,6,FED_20200205c_3T2,8,50,,
WCOMP,SAXOPHONE     CAMERA     BOWL,92,1,7,0,0,6,FED_20200205c_3T2,9,53,,
SCOMP,A WOMAN IS ROLLER SKATING,111,1,7,0,0,6,FED_20200205c_3T2,10,58,,
SCOMP,A GIRL IS PLAYING THE VIOLIN,112,1,7,0,0,6,FED_20200205c_3T2,11,61,,
SCOMP,A WOMAN IS JOGGING,115,1,7,0,0,6,FED_20200205c_3T2,12,64,,
SCOMP,A WOMAN IS HOLDING A STOP SIGN,84,1,7,0,0,6,FED_20200205c_3T2,13,67,,
WPROD,hole_09s-deer_06s-swimming_pool_18s.jpg,9,1,7,0,HOLE KANGAROO SWIMMING POOL,6,FED_20200205c_3T2,14,72,,
WPROD,hand_04s-rock_09s-treadmill_01b-broom_04s.jpg,15,1,7,0,HAND ROCKS TREADMILL BROOM,6,FED_20200205c_3T2,15,79,,
WPROD,rollerblade_07s-shovel_09s-cyprus-4026880_960_720-bottle_06s.jpg,56,1,7,0,ROLLER SKATES SHOVEL CLIFF BOTTLE,6,FED_20200205c_3T2,16,86,,
WPROD,horse_15s-telescope_03n-shopping_cart_07s.jpg,32,1,7,0,GHORSE TELESCOPE SHOPPING CART,6,FED_20200205c_3T2,17,93,,
EVSEM,35268263.jpg,60,1,7,0,1,6,FED_20200205c_3T2,18,102,,
EVSEM,4789495327.jpg,31,1,7,0,2,6,FED_20200205c_3T2,19,105,,
EVSEM,4121133646.jpg,45,1,7,0,2,6,FED_20200205c_3T2,20,108,,
EVSEM,4772785237.jpg,25,1,7,0,2,6,FED_20200205c_3T2,21,111,,
SPROD,41999070.jpg,46,1,7,0,DOGS ARE PLAYING IN WATER,6,FED_20200205c_3T2,22,116,,
SPROD,6681702227.jpg,33,1,7,0,A WOMAN IS GIVING SOMEONE A HAIRCUT,6,FED_20200205c_3T2,23,123,,
SPROD,5220880759.jpg,16,1,7,0,A MAN IS TAKING A SHOWER,6,FED_20200205c_3T2,24,130,,
SPROD,6354735653.jpg,62,1,7,0,A MAN IS ROCK CLIMBING,6,FED_20200205c_3T2,25,137,,
FIX,+,0,1,7,0,0,6,FED_20200205c_3T2,26,144,,
SPROD,6915574150.jpg,6,1,7,0,A BABY IS HOLDING A TOOTHBRUSH,6,FED_20200205c_3T2,27,158,,
SPROD,4855357158.jpg,23,1,7,0,A MAN IS HOLDING A CANOE,6,FED_20200205c_3T2,28,165,,
SPROD,1414454789.jpg,61,1,7,0,CHEFS ARE IN THE KITCHEN,6,FED_20200205c_3T2,29,172,,
SPROD,5194023863.jpg,28,1,7,0,A GILR IS HOLDING AN APPLE,6,FED_20200205c_3T2,30,179,,
EVSEM,5220880759.jpg,16,1,7,0,1,6,FED_20200205c_3T2,31,188,,
EVSEM,5840187633.jpg,35,1,7,0,1,6,FED_20200205c_3T2,32,191,,
EVSEM,4050265867.jpg,18,1,7,0,1,6,FED_20200205c_3T2,33,194,,
EVSEM,5543900069.jpg,40,1,7,0,1,6,FED_20200205c_3T2,34,197,,
WPROD,swimming_pool_18s-toothbrush_08s-snail_01b-fence_18s.jpg,53,1,7,0,SWIMMING POOL TOOTHBRUSH SNAIL FENCE,6,FED_20200205c_3T2,35,202,,
WPROD,cyprus-4026880_960_720-bird_12s-sponge_11s.jpg,43,1,7,0,CLIFF BIRD SPONGE,6,FED_20200205c_3T2,36,209,,
WPROD,violin_12n-iron_04s-newspapers-1412940_960_720-hand_04s.jpg,39,1,7,0,VIOLIN IRONN NEWSPAPER HAND,6,FED_20200205c_3T2,37,216,,
WPROD,castle-2462133_960_720-paintbrush_10s-strawberry_04n.jpg,13,1,7,0,CASTLE BRUSH STRAWBERRY,6,FED_20200205c_3T2,38,223,,
SCOMP,A WOMAN IS PLAYING THE HARP,97,1,7,0,0,6,FED_20200205c_3T2,39,232,,
SCOMP,A GROUP OF PEOPLE ARE PLAYING POKER,66,1,7,0,0,6,FED_20200205c_3T2,40,235,,
SCOMP,A MAN IS PLAYING POOL,83,1,7,0,0,6,FED_20200205c_3T2,41,238,,
SCOMP,A MAN IS PUSHING A COUCH DOWN A SIDEWALK,86,1,7,0,0,6,FED_20200205c_3T2,42,241,,
WCOMP,BEACH     ARM     ROCK     RAZOR,72,1,7,0,0,6,FED_20200205c_3T2,43,246,,
WCOMP,SHOE     TELESCOPE     NOODLE     SKATEBOARD,100,1,7,0,0,6,FED_20200205c_3T2,44,249,,
WCOMP,GUITAR     HOUSE     DISHES,107,1,7,0,0,6,FED_20200205c_3T2,45,252,,
WCOMP,CARDS     VACUUM     SHOPPING CART,66,1,7,0,0,6,FED_20200205c_3T2,46,255,,
NPROD,GNANT    THOULE    PHRUICHE    SPLOAT,27,1,7,0,GNANT THOULE PHRUICHE SPLOAT,6,FED_20200205c_3T2,47,260,,
NPROD,GLETCH    SNOLF    SWIRR    SNEBE,11,1,7,0,SLETCH SNOLF SWIRR SNEBE,6,FED_20200205c_3T2,48,267,,
NPROD,SPREUTH    PHLAISE    SWIRGE    SHROD,20,1,7,0,SPREUTH PHLAISE SWIRGE SHROD,6,FED_20200205c_3T2,49,274,,
NPROD,BLORCE    STROFF    THREPE    THORGE,63,1,7,0,BLORCE STROFF THREPE THORGE,6,FED_20200205c_3T2,50,281,,
FIX,+,0,1,7,0,0,6,FED_20200205c_3T2,51,288,,
FIX,+,0,1,10,0,0,3,FED_20200205c_3T2,1,0,,
WPROD,razor_03s-plant_09s-hair_04s.jpg,48,1,10,0,RAZOR PLANT HAIR,3,FED_20200205c_3T2,2,14,,
WPROD,shopping_cart_07s-piano_11n-crayon_17s.jpg,41,1,10,0,SHOPPING CART PIANO CARYONS,3,FED_20200205c_3T2,3,21,,
WPROD,sidewalk-3999780_960_720-shirt_02s-ladder_01b.jpg,17,1,10,0,SIDEWALK SHIRT LADDER,3,FED_20200205c_3T2,4,28,,
WPROD,canoe_12s-train_set_07s-dog_01b.jpg,18,1,10,0,BOAT TRAIN DOG,3,FED_20200205c_3T2,5,35,,
EVSEM,4705826062.jpg,49,1,10,0,1,3,FED_20200205c_3T2,6,44,,
EVSEM,4387675829.jpg,14,1,10,0,2,3,FED_20200205c_3T2,7,47,,
EVSEM,4696829163.jpg,54,1,10,0,1,3,FED_20200205c_3T2,8,50,,
EVSEM,126594141.jpg,26,1,10,0,2,3,FED_20200205c_3T2,9,53,,
SPROD,6721214117.jpg,41,1,10,0,A MAN IS BOWLING,3,FED_20200205c_3T2,10,58,,
SPROD,4705826062.jpg,49,1,10,0,A MAN IS EATING AN ICE CREAM CONE,3,FED_20200205c_3T2,11,65,,
SPROD,3672940355.jpg,12,1,10,0,A GIRL IS KICKING A BALL,3,FED_20200205c_3T2,12,72,,
SPROD,126594141.jpg,26,1,10,0,A N THLETE IS TYPING HER SHOES,3,FED_20200205c_3T2,13,79,,
NPROD,GNIRP    SPLOC    SCRINCH    SWELM,36,1,10,0,GNIRP SPLOC SCRINCH SWELM,3,FED_20200205c_3T2,14,88,,
NPROD,PHLOOGE    SMU    GWOAM    TROOCH,10,1,10,0,PHLOOGE SMU GWOAM GTROOCH,3,FED_20200205c_3T2,15,95,,
NPROD,TROLF    FLUINT    PLYBE    SPRUITE,9,1,10,0,TROLF FLUINT PLYBE SPRUITE,3,FED_20200205c_3T2,16,102,,
NPROD,PHLIN    STRIDGE    SKUS    DWIB,51,1,10,0,PHLIN STRIDGE SKUS DWIB,3,FED_20200205c_3T2,17,109,,
WCOMP,WINDOW     SHOWER     CHALKBOARD,104,1,10,0,0,3,FED_20200205c_3T2,18,118,,
WCOMP,LIPSTICK     FLUTE     CASTLE     BALL,93,1,10,0,0,3,FED_20200205c_3T2,19,121,,
WCOMP,CHAIR     SKIS,118,1,10,0,0,3,FED_20200205c_3T2,20,124,,
WCOMP,HULA HOOP     HOUSE PLANT     SPONGE     MAP,124,1,10,0,0,3,FED_20200205c_3T2,21,127,,
SCOMP,A BOY IS HOLDING A BIRD IN HIS HANDS,120,1,10,0,0,3,FED_20200205c_3T2,22,132,,
SCOMP,A LITTLE BOY IS POINTING AT SOMETHING,99,1,10,0,0,3,FED_20200205c_3T2,23,135,,
SCOMP,A MAN IS IRONING A SHIRT,87,1,10,0,0,3,FED_20200205c_3T2,24,138,,
SCOMP,A MAN IS VACUUMING,92,1,10,0,0,3,FED_20200205c_3T2,25,141,,
FIX,+,0,1,10,0,0,3,FED_20200205c_3T2,26,144,,
SCOMP,TWO MEN ARE PLAYING CHECKERS,118,1,10,0,0,3,FED_20200205c_3T2,27,158,,
SCOMP,A CHOIR IS SINGING,102,1,10,0,0,3,FED_20200205c_3T2,28,161,,
SCOMP,A WOMAN IS TAKING A PICTURE OF A PLANT,93,1,10,0,0,3,FED_20200205c_3T2,29,164,,
SCOMP,A LITTLE BOY IS HOLDING TWO LARGE CUCUMBERS,77,1,10,0,0,3,FED_20200205c_3T2,30,167,,
WCOMP,PIPE     CANOE,120,1,10,0,0,3,FED_20200205c_3T2,31,172,,
WCOMP,WATER BOTTLE     IRON     CARD     HAND,65,1,10,0,0,3,FED_20200205c_3T2,32,175,,
WCOMP,BLOWDRYER     LADDER     BABY,112,1,10,0,0,3,FED_20200205c_3T2,33,178,,
WCOMP,HOLE     MAGNIFYING GLASS,75,1,10,0,0,3,FED_20200205c_3T2,34,181,,
NPROD,THROOGE    TWIRTH    PLARSH    GWECK,14,1,10,0,THROOGE TWIRTH PLARSH GWECK,3,FED_20200205c_3T2,35,186,,
NPROD,PLIG    SWEF    BLEANT    DWOSS,21,1,10,0,PLUG SWEF BLEANT DWOSS,3,FED_20200205c_3T2,36,193,,
NPROD,BLOLT    SLOAL    SNEAF    TWORCE,34,1,10,0,BLOLT SLOAL SNEAF TWORCE,3,FED_20200205c_3T2,37,200,,
NPROD,KILCH    PHROOSE    WHALSE    THRARCE,1,1,10,0,KILCH PHROOSE WAHLSE THRARCE,3,FED_20200205c_3T2,38,207,,
SPROD,5241718422.jpg,19,1,10,0,A MAN IS RUNNIGN ON A TREADMILL,3,FED_20200205c_3T2,39,216,,
SPROD,4621100791.jpg,5,1,10,0,A MAN IS NAPPING ON A BENCH OUTSIDE,3,FED_20200205c_3T2,40,223,,
SPROD,6845394024.jpg,7,1,10,0,A BOY IS BRUSHING HIS TEETH,3,FED_20200205c_3T2,41,230,,
SPROD,4696829163.jpg,54,1,10,0,A BOY CAUGHT A FISH,3,FED_20200205c_3T2,42,237,,
EVSEM,3672940355.jpg,12,1,10,0,2,3,FED_20200205c_3T2,43,246,,
EVSEM,4263999253.jpg,56,1,10,0,2,3,FED_20200205c_3T2,44,249,,
EVSEM,5534793306.jpg,48,1,10,0,2,3,FED_20200205c_3T2,45,252,,
EVSEM,4704668708.jpg,15,1,10,0,1,3,FED_20200205c_3T2,46,255,,
WPROD,ocean-918999_960_720-train_10n-railing_05s.jpg,31,1,10,0,WAVES TRAIN GATE,3,FED_20200205c_3T2,47,260,,
WPROD,puppy_01b-chalkboard_08s-axe_12n.jpg,6,1,10,0,DOG CAHLKBOARD AXE,3,FED_20200205c_3T2,48,267,,
WPROD,paintbrush_10s-shower_13n-pool_table_03s.jpg,1,1,10,0,BRUSH SHOWER POOL TABLE,3,FED_20200205c_3T2,49,274,,
WPROD,lawnmower_07s-cucumber_07s.jpg,29,1,10,0,LAWMMOWEVR CUCUMEBER,3,FED_20200205c_3T2,50,281,,
FIX,+,0,1,10,0,0,3,FED_20200205c_3T2,51,288,,
FIX,+,0,1,8,0,0,5,FED_20200205c_3T2,1,0,,
SPROD,4618092593.jpg,37,1,8,0,MEN ARE SHAVING,5,FED_20200205c_3T2,2,14,,
SPROD,807129.jpg,47,1,8,0,A MAN IS PLAYING A FLUTE,5,FED_20200205c_3T2,3,21,,
SPROD,4688958106.jpg,8,1,8,0,SURGEONS ARE UNDERGOEING SURGERY,5,FED_20200205c_3T2,4,28,,
SPROD,6939434967.jpg,55,1,8,0,GIRLS ARE PLAYING JUMPROPE,5,FED_20200205c_3T2,5,35,,
NPROD,SPRASH    SPROAT    STREVE    BLAUB,37,1,8,0,SPRASH SPROAT STREVE BLUAB,5,FED_20200205c_3T2,6,44,,
NPROD,WHOOB    GLURE    SHRUTCH    SHREAL,5,1,8,0,WHOOB GLURE SHRUTCH SHREAL,5,FED_20200205c_3T2,7,51,,
NPROD,SPLYBE    RHUNGE    VIFF    SPLIEVE,57,1,8,0,SPLYBGE HUGNGE VIFF SPLIEVE,5,FED_20200205c_3T2,8,58,,
NPROD,SMISE    SPLEGG    SCROUN    GNOLT,29,1,8,0,SMISE SPLEGG SCROUN GNOLT,5,FED_20200205c_3T2,9,65,,
WCOMP,DISHRACK     HULA HOOP     SNOW     NEWSPAPER,90,1,8,0,0,5,FED_20200205c_3T2,10,74,,
WCOMP,SWING SET     HULA HOOP     SHOVEL     HAND,119,1,8,0,0,5,FED_20200205c_3T2,11,77,,
WCOMP,SNOW     TOOTH,96,1,8,0,0,5,FED_20200205c_3T2,12,80,,
WCOMP,TRAIN     JUGGLING BALLS,121,1,8,0,0,5,FED_20200205c_3T2,13,83,,
SCOMP,A MAN IS JUGGLING BALLS,91,1,8,0,0,5,FED_20200205c_3T2,14,88,,
SCOMP,A WOMAN IS WASHING THE DISHES,121,1,8,0,0,5,FED_20200205c_3T2,15,91,,
SCOMP,A GROUP OF PEOPLE ARE HIKING UP A MOUNTAIN,100,1,8,0,0,5,FED_20200205c_3T2,16,94,,
SCOMP,A LITTLE GIRL IS JUMPING INTO A POOL,122,1,8,0,0,5,FED_20200205c_3T2,17,97,,
WPROD,hole_09s-scissors_02s-noodle_12s.jpg,62,1,8,0,HOLE SCISSORS SPAGHETTI,5,FED_20200205c_3T2,18,102,,
WPROD,lawnmower_07s-sponge_11s.jpg,19,1,8,0,LAWNMOWER SPONGE,5,FED_20200205c_3T2,19,109,,
WPROD,bowl_08s-pipe1_12s-flute_11s.jpg,20,1,8,0,BOWL PIPE FLUTE,5,FED_20200205c_3T2,20,116,,
WPROD,skateboard_07s-rock_09s-strawberry_04n.jpg,45,1,8,0,SKATEBOARD ROCKS STRAWBERRY,5,FED_20200205c_3T2,21,123,,
EVSEM,807129.jpg,47,1,8,0,2,5,FED_20200205c_3T2,22,132,,
EVSEM,7188003.jpg,51,1,8,0,2,5,FED_20200205c_3T2,23,135,,
EVSEM,6681702227.jpg,33,1,8,0,1,5,FED_20200205c_3T2,24,138,,
EVSEM,5669914204.jpg,13,1,8,0,2,5,FED_20200205c_3T2,25,141,,
FIX,+,0,1,8,0,0,5,FED_20200205c_3T2,26,144,,
EVSEM,4855357158.jpg,23,1,8,0,2,5,FED_20200205c_3T2,27,158,,
EVSEM,325742196.jpg,4,1,8,0,1,5,FED_20200205c_3T2,28,161,,
EVSEM,41999070.jpg,46,1,8,0,2,5,FED_20200205c_3T2,29,164,,
EVSEM,4618092593.jpg,37,1,8,0,1,5,FED_20200205c_3T2,30,167,,
WPROD,shower_13n-matterhorn-425134_960_720-pillow_13n.jpg,50,1,8,0,SHOWER MOUNTAIN PILLOW,5,FED_20200205c_3T2,31,172,,
WPROD,suitcase_01b-iron_04s-trampoline_14s.jpg,54,1,8,0,SWUITCASE IRON TRAMPOLINE,5,FED_20200205c_3T2,32,179,,
WPROD,crayon_17s-hurdle-812853_960_720-shopping-874974_960_720.jpg,30,1,8,0,CRAYONS HURDL UMBRELLA SHOPPING,5,FED_20200205c_3T2,33,186,,
WPROD,bubble_01b-arm_07s.jpg,52,1,8,0,BUBBLES ARM,5,FED_20200205c_3T2,34,193,,
SCOMP,A MAN IS MEDITATING IN A PARK,80,1,8,0,0,5,FED_20200205c_3T2,35,202,,
SCOMP,TWO GIRLS ARE ARM-WRESTLING,117,1,8,0,0,5,FED_20200205c_3T2,36,205,,
SCOMP,A WOMAN IS PAINTING HER NAILS,95,1,8,0,0,5,FED_20200205c_3T2,37,208,,
SCOMP,A WOMAN IS HOLDING A PUPPY,79,1,8,0,0,5,FED_20200205c_3T2,38,211,,
WCOMP,JUGGLING BALLS     WAVE,91,1,8,0,0,5,FED_20200205c_3T2,39,216,,
WCOMP,DANDELION     BOOK     SNAIL     GIFT,88,1,8,0,0,5,FED_20200205c_3T2,40,219,,
WCOMP,NEWSPAPER     WINDOW,115,1,8,0,0,5,FED_20200205c_3T2,41,222,,
WCOMP,BUBBLE     HAND     CANOE,83,1,8,0,0,5,FED_20200205c_3T2,42,225,,
NPROD,DRAUTCH    BLOURSE    SHRAMN    RHONK,2,1,8,0,DRAUCH BLOURSE SHRAMN RHONK,5,FED_20200205c_3T2,43,230,,
NPROD,SWOILE    PRESH    DWESH    SKABE,35,1,8,0,SWOILE PRESH SWESH SKABE,5,FED_20200205c_3T2,44,237,,
NPROD,PRAUCE    SKOURGE    ZORCH    DWOAL,12,1,8,0,PRAUCE SKOURGE ZORCH DWOAL,5,FED_20200205c_3T2,45,244,,
NPROD,FRUZZ    PHREEP    SHRY    SPLASS,6,1,8,0,FRUZZ PHREEP SHRY SPALSS,5,FED_20200205c_3T2,46,251,,
SPROD,6225280494.jpg,9,1,8,0,A MAN IS JUMPING OVER A HURDLE,5,FED_20200205c_3T2,47,260,,
SPROD,6237339784.jpg,30,1,8,0,A BOY IS ON A TREE,5,FED_20200205c_3T2,48,267,,
SPROD,3819214047.jpg,59,1,8,0,A MAN IS ON A SKATEBOARD,5,FED_20200205c_3T2,49,274,,
SPROD,4121133646.jpg,45,1,8,0,A BOY IS EXAMINING A ROCK,5,FED_20200205c_3T2,50,281,,
FIX,+,0,1,8,0,0,5,FED_20200205c_3T2,51,288,,
FIX,+,0,2,9,0,0,3,FED_20191120d_3T2,1,0,,
EVSEM,5194027799.jpg,79,2,9,0,2,3,FED_20191120d_3T2,2,14,,
EVSEM,4548039526.jpg,69,2,9,0,2,3,FED_20191120d_3T2,3,17,,
EVSEM,6552971469.jpg,102,2,9,0,1,3,FED_20191120d_3T2,4,20,,
EVSEM,2763354860.jpg,127,2,9,0,2,3,FED_20191120d_3T2,5,23,,
SPROD,3660826540.jpg,99,2,9,0,098ht8ng,3,FED_20191120d_3T2,6,28,,
SPROD,4390269250.jpg,104,2,9,0,eating,3,FED_20191120d_3T2,7,35,,
SPROD,2047030603.jpg,82,2,9,0,shopping for food,3,FED_20191120d_3T2,8,42,,
SPROD,4555514125.jpg,86,2,9,0,pushing a couch,3,FED_20191120d_3T2,9,49,,
NPROD,SLEZ    TWAUL    GWUG    PHRIEF,61,2,9,0,slez 5taqul guf pheiwf,3,FED_20191120d_3T2,10,58,,
NPROD,DRAUTCH    BLOURSE    SHRAMN    RHONK,2,2,9,0,seautch blourse shriamn rhion,3,FED_20191120d_3T2,11,65,,
NPROD,BLUIN    STRALF    TWUM    THRULCH,38,2,9,0,bluin sreafl twum,3,FED_20191120d_3T2,12,72,,
NPROD,SPLAUGE    SCRANK    PLEETH    DRYS,23,2,9,0,slauge scrank pletth drys ,3,FED_20191120d_3T2,13,79,,
WCOMP,WOOD     TOOTH     DANDELION,33,2,9,0,0,3,FED_20191120d_3T2,14,88,,
WCOMP,DOG     COLUMN     WOOD     HAIR,34,2,9,0,0,3,FED_20191120d_3T2,15,91,,
WCOMP,COUCH     BOWL     SWIMMING POOL     SWING SET,46,2,9,0,0,3,FED_20191120d_3T2,16,94,,
WCOMP,BIRD     APPLE     SKATEBOARD,23,2,9,0,0,3,FED_20191120d_3T2,17,97,,
SCOMP,A MAN IS ROCK CLIMBING,62,2,9,0,0,3,FED_20191120d_3T2,18,102,,
SCOMP,A BABY IS CRAWLING ON THE FLOOR,10,2,9,0,0,3,FED_20191120d_3T2,19,105,,
SCOMP,A YOUNG GIRL IS PETTING A DEER,3,2,9,0,0,3,FED_20191120d_3T2,20,108,,
SCOMP,A GIRL IS PLAYING WITH A TOY TRAIN,14,2,9,0,0,3,FED_20191120d_3T2,21,111,,
WPROD,magnifying_glass_05s-grass-220465_960_720.jpg,74,2,9,0,pan lawn,3,FED_20191120d_3T2,22,116,,
WPROD,flower_19s-train_10n.jpg,99,2,9,0,flower taiun,3,FED_20191120d_3T2,23,123,,
WPROD,bubble_01b-hand_04s-canoe_12s.jpg,83,2,9,0,buubble hand canoe,3,FED_20191120d_3T2,24,130,,
WPROD,chalkboard_08s-doll_10s.jpg,102,2,9,0,chalk bioard dolls ,3,FED_20191120d_3T2,25,137,,
FIX,+,0,2,9,0,0,3,FED_20191120d_3T2,26,144,,
WPROD,snow_04s-cyprus-4026880_960_720-strawberry_04n.jpg,81,2,9,0,snow ocean cliff strawverry,3,FED_20191120d_3T2,27,158,,
WPROD,boot_13s-checkers_04s-telescope_03n.jpg,85,2,9,0,sho0es chess telescope,3,FED_20191120d_3T2,28,165,,
WPROD,couch_18n-fish_09s.jpg,109,2,9,0,co9ich fish,3,FED_20191120d_3T2,29,172,,
WPROD,book_08s-wood_05s-ball_05s-saxophone_09s.jpg,94,2,9,0,book wood balloonn trumpet,3,FED_20191120d_3T2,30,179,,
SCOMP,A BOY IS LOOKING THROUGH A TELESCOPE,13,2,9,0,0,3,FED_20191120d_3T2,31,188,,
SCOMP,A LITTLE GIRL IS BLOWING BUBBLES,20,2,9,0,0,3,FED_20191120d_3T2,32,191,,
SCOMP,A MAN IS LOOKING THROUGH A MICROSCOPE,58,2,9,0,0,3,FED_20191120d_3T2,33,194,,
SCOMP,THREE GIRLS ARE PLAYING JUMP ROPE,55,2,9,0,0,3,FED_20191120d_3T2,34,197,,
WCOMP,VIOLIN     IRON     NEWSPAPER     HAND,39,2,9,0,0,3,FED_20191120d_3T2,35,202,,
WCOMP,BALL     TRAMPOLINE     PILLOW     VIOLIN,37,2,9,0,0,3,FED_20191120d_3T2,36,205,,
WCOMP,HOLE     DEER     SWIMMING POOL,9,2,9,0,0,3,FED_20191120d_3T2,37,208,,
WCOMP,SAXOPHONE     COUCH     JUMPROPE     LAWN,4,2,9,0,0,3,FED_20191120d_3T2,38,211,,
NPROD,STRUTCH    SPRETE    SPREACE    SLEFF,59,2,9,0,str7cgt sorete soreace sleff,3,FED_20191120d_3T2,39,216,,
NPROD,PLISC    SNULT    THUTCH    GWERF,43,2,9,0,plisc snult thutch fgwe,3,FED_20191120d_3T2,40,223,,
NPROD,WHOOB    GLURE    SHRUTCH    SHREAL,5,2,9,0,whoob flugre sutch shreal,3,FED_20191120d_3T2,41,230,,
NPROD,SMON    SPROE    PHLISH    SCROAT,8,2,9,0,smon sproe phlish scroat,3,FED_20191120d_3T2,42,237,,
SPROD,41105465.jpg,80,2,9,0,meditation,3,FED_20191120d_3T2,43,246,,
SPROD,3652094744.jpg,65,2,9,0,watering tree,3,FED_20191120d_3T2,44,253,,
SPROD,8189395281.jpg,111,2,9,0,rollerblading,3,FED_20191120d_3T2,45,260,,
SPROD,5505219003.jpg,128,2,9,0,writing on board,3,FED_20191120d_3T2,46,267,,
EVSEM,8088804992.jpg,115,2,9,0,2,3,FED_20191120d_3T2,47,276,,
EVSEM,4986581949.jpg,81,2,9,0,1,3,FED_20191120d_3T2,48,279,,
EVSEM,4555514125.jpg,86,2,9,0,2,3,FED_20191120d_3T2,49,282,,
EVSEM,3549408779.jpg,109,2,9,0,2,3,FED_20191120d_3T2,50,285,,
FIX,+,0,2,9,0,0,3,FED_20191120d_3T2,51,288,,
FIX,+,0,1,1,0,0,6,FED_20200205b_3T2,1,0,,
SPROD,6915574150.jpg,6,1,1,0,GJRK BILFINGH YIIYHBTUDH,6,FED_20200205b_3T2,2,14,,
SPROD,5220880759.jpg,16,1,1,0,"M,SN IN YTHR DHOERT",6,FED_20200205b_3T2,3,21,,
SPROD,35268263.jpg,60,1,1,0,WOMAN AT TABLE SEWING,6,FED_20200205b_3T2,4,28,,
SPROD,6303184938.jpg,58,1,1,0,MAN LOKING IN MICEISCIOE\,6,FED_20200205b_3T2,5,35,,
EVSEM,6110845331.jpg,24,1,1,0,0,6,FED_20200205b_3T2,6,44,,
EVSEM,6237339784.jpg,30,1,1,0,0,6,FED_20200205b_3T2,7,47,,
EVSEM,5194023863.jpg,28,1,1,0,0,6,FED_20200205b_3T2,8,50,,
EVSEM,5584269779.jpg,57,1,1,0,0,6,FED_20200205b_3T2,9,53,,
WPROD,cocktail_01b-doll_10s-rollerblade_07s.jpg,10,1,1,0,WJNERGLSDD FILLD TILLRTBLSFRD,6,FED_20200205b_3T2,10,58,,
WPROD,hand_08s-fruit_05s-balls-272409_960_720-railing_05s.jpg,5,1,1,0,NSNFD GTUIY YI,6,FED_20200205b_3T2,11,65,,
WPROD,ocean-918999_960_720-train_10n-railing_05s.jpg,31,1,1,0,WAGVE TRAIN GRNVE,6,FED_20200205b_3T2,12,72,,
WPROD,sidewalk-3999780_960_720-shirt_02s-ladder_01b.jpg,17,1,1,0,SRTEET SHRT LADDER,6,FED_20200205b_3T2,13,79,,
SCOMP,TWO BOYS ARE JUMPING ON A TRAMPOLINE,106,1,1,0,0,6,FED_20200205b_3T2,14,88,,
SCOMP,A DOG IS SWIMMING IN A POOL,109,1,1,0,0,6,FED_20200205b_3T2,15,91,,
SCOMP,A MAN IS PUSHING A COUCH DOWN A SIDEWALK,86,1,1,0,0,6,FED_20200205b_3T2,16,94,,
SCOMP,A YOUNG CHILD IS EATING AN APPLE,108,1,1,0,0,6,FED_20200205b_3T2,17,97,,
WCOMP,WATER BOTTLE     IRON     CARD     HAND,65,1,1,0,0,6,FED_20200205b_3T2,18,102,,
WCOMP,CHAIR     SKIS,118,1,1,0,0,6,FED_20200205b_3T2,19,105,,
WCOMP,BLOWDRYER     DISHES,105,1,1,0,0,6,FED_20200205b_3T2,20,108,,
WCOMP,BOOT     CHECKERS     TELESCOPE,85,1,1,0,0,6,FED_20200205b_3T2,21,111,,
NPROD,KNOOSH    SPLIEGE    THAIF    THOZ,60,1,1,0,KNOODH PLIERG THSAIF THOX\,6,FED_20200205b_3T2,22,116,,
NPROD,BLORQUE    GHIMP    PHRAUCE    TRUME,55,1,1,0,BLORWURE GHNP PA,6,FED_20200205b_3T2,23,123,,
NPROD,PLOUTH    STRAUVE    YENGE    THWURCH,53,1,1,0,PLOUJTHN STRAUBVE TENGE,6,FED_20200205b_3T2,24,130,,
NPROD,GNIRP    SPLOC    SCRINCH    SWELM,36,1,1,0,GNIRP SPLOV SCRIOMVJ,6,FED_20200205b_3T2,25,137,,
FIX,+,0,1,1,0,0,6,FED_20200205b_3T2,26,144,,
NPROD,SPRASH    SPROAT    STREVE    BLAUB,37,1,1,0,0,6,FED_20200205b_3T2,27,158,,
NPROD,SPREUTH    PHLAISE    SWIRGE    SHROD,20,1,1,0,0,6,FED_20200205b_3T2,28,165,,
NPROD,THWUIP    WHULP    FROLVE    YERB,16,1,1,0,0,6,FED_20200205b_3T2,29,172,,
NPROD,DWIKE    SKEAVE    SPLOME    TRALSE,62,1,1,0,D[TSVJ DPTOSY DYTTRNR BL,6,FED_20200205b_3T2,30,179,,
WCOMP,BEACH     ARM     ROCK     RAZOR,72,1,1,0,DPTRJYHN PNLSIDR DEITYHR,6,FED_20200205b_3T2,31,188,,
WCOMP,LIPSTICK     FLUTE     CASTLE     BALL,93,1,1,0,YNEJL RNJLP PH,6,FED_20200205b_3T2,32,191,,
WCOMP,ACCORDION     LADDER     APPLE,84,1,1,0,"GEK,R F,RSBR DFLL,K R ",6,FED_20200205b_3T2,33,194,,
WCOMP,AXE     COCKTAIL     SEWING MACHINE,126,1,1,0,0,6,FED_20200205b_3T2,34,197,,
SCOMP,A WOMAN IS FISHING,125,1,1,0,0,6,FED_20200205b_3T2,35,202,,
SCOMP,A BOY IS PLAYING THE PIANO,116,1,1,0,0,6,FED_20200205b_3T2,36,205,,
SCOMP,TWO OLDER MEN ARE WALKING ON THE BEACH,69,1,1,0,0,6,FED_20200205b_3T2,37,208,,
SCOMP,A WOMAN IS ROLLER SKATING,111,1,1,0,0,6,FED_20200205b_3T2,38,211,,
WPROD,cucumber_07s-guitar_12s-brush_05s.jpg,3,1,1,0,"BIBIM,NTY HIOUDT NTIFJ",6,FED_20200205b_3T2,39,216,,
WPROD,puppy_01b-chalkboard_08s-axe_12n.jpg,6,1,1,0,GPJ BJD;LNPDYG DV,6,FED_20200205b_3T2,40,223,,
WPROD,hole_09s-deer_06s-swimming_pool_18s.jpg,9,1,1,0,JOP;R GTTY POOL,6,FED_20200205b_3T2,41,230,,
WPROD,dish_11s-plant_09s-violin_12n-leaves-1721983_960_720.jpg,14,1,1,0,"GO,P N IFJ NOP;D",6,FED_20200205b_3T2,42,237,,
EVSEM,6225280494.jpg,9,1,1,0,0,6,FED_20200205b_3T2,43,246,,
EVSEM,5840187633.jpg,35,1,1,0,0,6,FED_20200205b_3T2,44,249,,
EVSEM,7995263133.jpg,64,1,1,0,0,6,FED_20200205b_3T2,45,252,,
EVSEM,6939434967.jpg,55,1,1,0,0,6,FED_20200205b_3T2,46,255,,
SPROD,3819214047.jpg,59,1,1,0,MSN DIYYINHJ ON FKDYRTBODYG,6,FED_20200205b_3T2,47,260,,
SPROD,5584269779.jpg,57,1,1,0,EOSN TIFINNH HNOTDR,6,FED_20200205b_3T2,48,267,,
SPROD,3665441862.jpg,43,1,1,0,"TOR; V;O,NOMH GRMBVR",6,FED_20200205b_3T2,49,274,,
SPROD,33256003.jpg,36,1,1,0,"WP,SM [IYYOMH PM ;O[FYOBVL",6,FED_20200205b_3T2,50,281,,
FIX,+,0,1,1,0,0,6,FED_20200205b_3T2,51,288,,
FIX,+,0,1,4,0,0,3,FED_20200130b_3T2,1,0,,
SCOMP,A MAN IS BLOWING BUBBLES,89,1,4,0,0,3,FED_20200130b_3T2,2,14,,
SCOMP,A WOMAN IS SMILING,90,1,4,0,0,3,FED_20200130b_3T2,3,17,,
SCOMP,A MAN IS PUSHING A COUCH DOWN A SIDEWALK,86,1,4,0,0,3,FED_20200130b_3T2,4,20,,
SCOMP,A MAN IS SMOKING A PIPE,73,1,4,0,0,3,FED_20200130b_3T2,5,23,,
WCOMP,AXE     HAND     SHOPPING CART,113,1,4,0,0,3,FED_20200130b_3T2,6,28,,
WCOMP,FRUIT     PUPPY,123,1,4,0,0,3,FED_20200130b_3T2,7,31,,
WCOMP,HULA HOOP     HOUSE PLANT     SPONGE     MAP,124,1,4,0,0,3,FED_20200130b_3T2,8,34,,
WCOMP,LEAVES     PIPE     COLUMN,71,1,4,0,0,3,FED_20200130b_3T2,9,37,,
NPROD,SLEZ    TWAUL    GWUG    PHRIEF,61,1,4,0,slez twaul gwug phrief ,3,FED_20200130b_3T2,10,42,,
NPROD,SPLYBE    RHUNGE    VIFF    SPLIEVE,57,1,4,0,splybe rhunge viff splieve,3,FED_20200130b_3T2,11,49,,
NPROD,BLUIN    STRALF    TWUM    THRULCH,38,1,4,0, bluin stralf twum thrulch ,3,FED_20200130b_3T2,12,56,,
NPROD,SPREETH    SHRADGE    PHRAW    PLONCH,4,1,4,0,spreeth shradge phraw plonch ,3,FED_20200130b_3T2,13,63,,
SPROD,4618092593.jpg,37,1,4,0,men shavin heads ,3,FED_20200130b_3T2,14,72,,
SPROD,6915574150.jpg,6,1,4,0,girl with tooghbrush ,3,FED_20200130b_3T2,15,79,,
SPROD,3818278154.jpg,39,1,4,0,meditating on beach ,3,FED_20200130b_3T2,16,86,,
SPROD,7819772858.jpg,52,1,4,0,surfing ,3,FED_20200130b_3T2,17,93,,
EVSEM,6915574150.jpg,6,1,4,0,1,3,FED_20200130b_3T2,18,102,,
EVSEM,6596861005.jpg,17,1,4,0,2,3,FED_20200130b_3T2,19,105,,
EVSEM,4121133646.jpg,45,1,4,0,2,3,FED_20200130b_3T2,20,108,,
EVSEM,4263999253.jpg,56,1,4,0,2,3,FED_20200130b_3T2,21,111,,
WPROD,swimming_pool_18s-baby_05s-sidewalk-3999780_960_720.jpg,47,1,4,0,pool baby sidewalk ,3,FED_20200130b_3T2,22,116,,
WPROD,fruit_05s-bowling_ball_08s.jpg,63,1,4,0,fruit bowling ball ,3,FED_20200130b_3T2,23,123,,
WPROD,fence_18s-skateboard_07s-horse_15s-trampoline_14s.jpg,42,1,4,0,fence horse trampoline skat l,3,FED_20200130b_3T2,24,130,,
WPROD,lawnmower_07s-sponge_11s.jpg,19,1,4,0,awn mower sponge,3,FED_20200130b_3T2,25,137,,
FIX,+,0,1,4,0,0,3,FED_20200130b_3T2,26,144,,
WPROD,broom_04s-hurdle-812853_960_720-background-3062011_960_720-cellphone_13s.jpg,35,1,4,0,broom hurdle phone shell ,3,FED_20200130b_3T2,27,158,,
WPROD,cocktail_01b-doll_10s-rollerblade_07s.jpg,10,1,4,0,martini rollerblade dolls ,3,FED_20200130b_3T2,28,165,,
WPROD,paintbrush_10s-shower_13n-pool_table_03s.jpg,1,1,4,0,brush shower pooltable ,3,FED_20200130b_3T2,29,172,,
WPROD,hole_09s-deer_06s-swimming_pool_18s.jpg,9,1,4,0,hole deer pool ,3,FED_20200130b_3T2,30,179,,
EVSEM,3677329561.jpg,27,1,4,0,2,3,FED_20200130b_3T2,31,188,,
EVSEM,4621100791.jpg,5,1,4,0,2,3,FED_20200130b_3T2,32,191,,
EVSEM,41999070.jpg,46,1,4,0,2,3,FED_20200130b_3T2,33,194,,
EVSEM,4050265867.jpg,18,1,4,0,1,3,FED_20200130b_3T2,34,197,,
SPROD,4772785237.jpg,25,1,4,0,sweeping sidewalk ,3,FED_20200130b_3T2,35,202,,
SPROD,5220880759.jpg,16,1,4,0,taking a shower ,3,FED_20200130b_3T2,36,209,,
SPROD,3677329561.jpg,27,1,4,0,washing a doggo ,3,FED_20200130b_3T2,37,216,,
SPROD,5241718422.jpg,19,1,4,0,runnign on a treadmill ,3,FED_20200130b_3T2,38,223,,
NPROD,PHRAN    SLASQUE    THWESS    SKOLE,22,1,4,0,phran slasqui thwess skole ph,3,FED_20200130b_3T2,39,232,,
NPROD,PHROAL    GLETT    BLEZ    SWEACH,15,1,4,0,roal glett blez sweach ,3,FED_20200130b_3T2,40,239,,
NPROD,KNOOSH    SPLIEGE    THAIF    THOZ,60,1,4,0,knoosh spliege thaif thoz ,3,FED_20200130b_3T2,41,246,,
NPROD,PRAUCE    SKOURGE    ZORCH    DWOAL,12,1,4,0,prauce skourge zorch dwoal ,3,FED_20200130b_3T2,42,253,,
WCOMP,WINDOW     HAIRBRUSH,106,1,4,0,window hairbrush ,3,FED_20200130b_3T2,43,262,,
WCOMP,MAGNIFYING GLASS     BIRD     SKI,70,1,4,0,magnifying glab,3,FED_20200130b_3T2,44,265,,
WCOMP,BOOT     TREE,86,1,4,0,0,3,FED_20200130b_3T2,45,268,,
WCOMP,HOLE     MAGNIFYING GLASS,75,1,4,0,0,3,FED_20200130b_3T2,46,271,,
SCOMP,A MAN IS SITTING ON A BENCH READING THE NEWSPAPER,119,1,4,0,0,3,FED_20200130b_3T2,47,276,,
SCOMP,A LITTLE BOY IS POINTING AT SOMETHING,99,1,4,0,0,3,FED_20200130b_3T2,48,279,,
SCOMP,A DOG IS SWIMMING IN A POOL,109,1,4,0,0,3,FED_20200130b_3T2,49,282,,
SCOMP,A YOUNG GIRL IS SITTING ON A RAILING,76,1,4,0,0,3,FED_20200130b_3T2,50,285,,
FIX,+,0,1,4,0,0,3,FED_20200130b_3T2,51,288,,
FIX,+,0,1,2,0,0,2,FED_20191204c_3T2,1,0,,
EVSEM,6882674785.jpg,20,1,2,0,OUT,2,FED_20191204c_3T2,2,14,,
EVSEM,3819214047.jpg,59,1,2,0,OUT,2,FED_20191204c_3T2,3,17,,
EVSEM,4607606901.jpg,3,1,2,0,OUT,2,FED_20191204c_3T2,4,20,,
EVSEM,7380263314.jpg,1,1,2,0,OUT,2,FED_20191204c_3T2,5,23,,
WPROD,hairdryer_09s-cucumber_07s-suitcase_01b-broom_04s.jpg,2,1,2,0,HARIDRYCUMNER,2,FED_20191204c_3T2,6,28,,
WPROD,fruit_05s-bowling_ball_08s.jpg,63,1,2,0,FRITNALLWIN,2,FED_20191204c_3T2,7,35,,
WPROD,fence_18s-skateboard_07s-horse_15s-trampoline_14s.jpg,42,1,2,0,GNOARD HOR,2,FED_20191204c_3T2,8,42,,
WPROD,bubble_01b-arm_07s.jpg,52,1,2,0,BIBBLE ARM,2,FED_20191204c_3T2,9,49,,
SCOMP,A MAN IS IRONING A SHIRT,87,1,2,0,0,2,FED_20191204c_3T2,10,58,,
SCOMP,A LITTLE GIRL IS SMELLING A FLOWER,124,1,2,0,0,2,FED_20191204c_3T2,11,61,,
SCOMP,A MAN IS BLOWING BUBBLES,89,1,2,0,0,2,FED_20191204c_3T2,12,64,,
SCOMP,A GROUP OF PEOPLE ARE PLAYING POKER,66,1,2,0,0,2,FED_20191204c_3T2,13,67,,
WCOMP,HULA HOOP     SHIRT,103,1,2,0,0,2,FED_20191204c_3T2,14,72,,
WCOMP,TOOTHBRUSH     CELLPHONE     MAP,82,1,2,0,0,2,FED_20191204c_3T2,15,75,,
WCOMP,TRAIN     JUGGLING BALLS,121,1,2,0,0,2,FED_20191204c_3T2,16,78,,
WCOMP,ICE CREAM     JUMPROPE     HOUSE PLANT,98,1,2,0,0,2,FED_20191204c_3T2,17,81,,
NPROD,PLISC    SNULT    THUTCH    GWERF,43,1,2,0,SLOSNSNITLTHUVHGSDL,2,FED_20191204c_3T2,18,86,,
NPROD,SLURCH    SNERTH    THWANGE    DRETE,24,1,2,0,ITVHDNRTHYHYENB,2,FED_20191204c_3T2,19,93,,
NPROD,BLUIN    STRALF    TWUM    THRULCH,38,1,2,0,RNDTATLTYWYHT,2,FED_20191204c_3T2,20,100,,
NPROD,THROOGE    TWIRTH    PLARSH    GWECK,14,1,2,0,TOOFHYHEIYHYRLDVO,2,FED_20191204c_3T2,21,107,,
SPROD,5669914204.jpg,13,1,2,0,GIRL WITH NOUY,2,FED_20191204c_3T2,22,116,,
SPROD,5840187633.jpg,35,1,2,0,SLOWWINGRUNNER ,2,FED_20191204c_3T2,23,123,,
SPROD,7995263133.jpg,64,1,2,0,"FIUM,PIOGN",2,FED_20191204c_3T2,24,130,,
SPROD,6225280494.jpg,9,1,2,0,0,2,FED_20191204c_3T2,25,137,,
FIX,+,0,1,2,0,0,2,FED_20191204c_3T2,26,144,,
SPROD,6354735653.jpg,62,1,2,0,NOLIMBNIGN,2,FED_20191204c_3T2,27,158,,
SPROD,4789495327.jpg,31,1,2,0,"WOM,AN NO PHOIONG",2,FED_20191204c_3T2,28,165,,
SPROD,3672940355.jpg,12,1,2,0,KICKING NALL,2,FED_20191204c_3T2,29,172,,
SPROD,4607606901.jpg,3,1,2,0,GIRLWITH DEER ,2,FED_20191204c_3T2,30,179,,
NPROD,WHOOB    GLURE    SHRUTCH    SHREAL,5,1,2,0,WHOONGLRIESD,2,FED_20191204c_3T2,31,188,,
NPROD,DROOCH    WRILK    SPLISK    TROME,45,1,2,0,DROOCHWERLKSLS,2,FED_20191204c_3T2,32,195,,
NPROD,SMISE    SPLEGG    SCROUN    GNOLT,29,1,2,0,SMIRESP;IGG SCROIM,2,FED_20191204c_3T2,33,202,,
NPROD,PHRAN    SLASQUE    THWESS    SKOLE,22,1,2,0,PJRAN SLSQWE,2,FED_20191204c_3T2,34,209,,
WCOMP,BOOK     WOOD     BALL     SAXOPHONE,94,1,2,0,0,2,FED_20191204c_3T2,35,218,,
WCOMP,SNOW     CLIFF     STRAWBERRY,81,1,2,0,0,2,FED_20191204c_3T2,36,221,,
WCOMP,WINDOW     SHOWER     CHALKBOARD,104,1,2,0,0,2,FED_20191204c_3T2,37,224,,
WCOMP,SAXOPHONE     CAMERA     BOWL,92,1,2,0,0,2,FED_20191204c_3T2,38,227,,
SCOMP,A BOY IS HOLDING A BIRD IN HIS HANDS,120,1,2,0,0,2,FED_20191204c_3T2,39,232,,
SCOMP,A MAN IS MEDITATING IN A PARK,80,1,2,0,0,2,FED_20191204c_3T2,40,235,,
SCOMP,A LITTLE GIRL IS EATING A STRAWBERRY,104,1,2,0,0,2,FED_20191204c_3T2,41,238,,
SCOMP,A WOMAN IS JOGGING,115,1,2,0,0,2,FED_20191204c_3T2,42,241,,
WPROD,violin_12n-iron_04s-newspapers-1412940_960_720-hand_04s.jpg,39,1,2,0,VIOLIMNIRONNEWSPWEMOWENRS,2,FED_20191204c_3T2,43,246,,
WPROD,lawnmower_07s-sponge_11s.jpg,19,1,2,0,POMNGAES,2,FED_20191204c_3T2,44,253,,
WPROD,suitcase_01b-iron_04s-trampoline_14s.jpg,54,1,2,0,SUITVAE RION TRAMOLICHAL;,2,FED_20191204c_3T2,45,260,,
WPROD,chalk_13s-stair_16s-fish_09s.jpg,40,1,2,0,STARIFISH,2,FED_20191204c_3T2,46,267,,
EVSEM,6303184938.jpg,58,1,2,0,IN,2,FED_20191204c_3T2,47,276,,
EVSEM,4121133646.jpg,45,1,2,0,IN,2,FED_20191204c_3T2,48,279,,
EVSEM,7028846053.jpg,42,1,2,0,IN,2,FED_20191204c_3T2,49,282,,
EVSEM,33256003.jpg,36,1,2,0,IN,2,FED_20191204c_3T2,50,285,,
FIX,+,0,1,2,0,0,2,FED_20191204c_3T2,51,288,,
FIX,+,0,1,11,0,0,5,FED_20200130d_3T2,1,0,,
SCOMP,A WOMAN IS HOLDING A CHICKEN,72,1,11,0,0,5,FED_20200130d_3T2,2,14,,
SCOMP,TWO BOYS ARE JUMPING ON A TRAMPOLINE,106,1,11,0,0,5,FED_20200130d_3T2,3,17,,
SCOMP,A WOMAN IS HOLDING A STOP SIGN,84,1,11,0,0,5,FED_20200130d_3T2,4,20,,
SCOMP,A WOMAN IS TAKING A PICTURE OF A PLANT,93,1,11,0,0,5,FED_20200130d_3T2,5,23,,
WPROD,column_12s-doll_10s.jpg,51,1,11,0,column dolls,5,FED_20200130d_3T2,6,28,,
WPROD,bird_12s-apple_10s-skateboard_07s.jpg,23,1,11,0,birdappleskateboard,5,FED_20200130d_3T2,7,35,,
WPROD,hole_09s-scissors_02s-noodle_12s.jpg,62,1,11,0,holescissorsspaghetti,5,FED_20200130d_3T2,8,42,,
WPROD,stair_16s-ice_cream_10s.jpg,24,1,11,0,stairsice cream,5,FED_20200130d_3T2,9,49,,
EVSEM,4580613274.jpg,34,1,11,0,2,5,FED_20200130d_3T2,10,58,,
EVSEM,6939434967.jpg,55,1,11,0,2,5,FED_20200130d_3T2,11,61,,
EVSEM,4896173039.jpg,22,1,11,0,2,5,FED_20200130d_3T2,12,64,,
EVSEM,6237339784.jpg,30,1,11,0,2,5,FED_20200130d_3T2,13,67,,
SPROD,29850055.jpg,50,1,11,0,a little boy is playing in the sand,5,FED_20200130d_3T2,14,72,,
SPROD,6237869128.jpg,63,1,11,0,a woman is pouytting on a boot,5,FED_20200130d_3T2,15,79,,
SPROD,3677329561.jpg,27,1,11,0,two girls are washing the dog,5,FED_20200130d_3T2,16,86,,
SPROD,4705826062.jpg,49,1,11,0,a man is eating ice cream,5,FED_20200130d_3T2,17,93,,
NPROD,DWIKE    SKEAVE    SPLOME    TRALSE,62,1,11,0,dwikeskeavesplometralse,5,FED_20200130d_3T2,18,102,,
NPROD,THRELL    FRUNG    VESK    THWEE,26,1,11,0,threllfrungvesktwhwee,5,FED_20200130d_3T2,19,109,,
NPROD,SPLAUGE    SCRANK    PLEETH    DRYS,23,1,11,0,splaugescrankpleethdrys,5,FED_20200130d_3T2,20,116,,
NPROD,SPREUTH    PHLAISE    SWIRGE    SHROD,20,1,11,0,spreuth [hlaiseswirgshrod,5,FED_20200130d_3T2,21,123,,
WCOMP,CARDS     VACUUM     SHOPPING CART,66,1,11,0,0,5,FED_20200130d_3T2,22,132,,
WCOMP,JUMPROPE     BOOK     BABY     FLOWER,80,1,11,0,0,5,FED_20200130d_3T2,23,135,,
WCOMP,SIDEWALK     FRISBEE     VACUUM     HARP,89,1,11,0,0,5,FED_20200130d_3T2,24,138,,
WCOMP,BOWLING BALL     HOUSE PLANT     PILLOW     EYE,95,1,11,0,0,5,FED_20200130d_3T2,25,141,,
FIX,+,0,1,11,0,0,5,FED_20200130d_3T2,26,144,,
WCOMP,JUGGLING BALLS     WAVE,91,1,11,0,0,5,FED_20200130d_3T2,27,158,,
WCOMP,DISHRACK     HULA HOOP     SNOW     NEWSPAPER,90,1,11,0,0,5,FED_20200130d_3T2,28,161,,
WCOMP,BLOWDRYER     LADDER     BABY,112,1,11,0,0,5,FED_20200130d_3T2,29,164,,
WCOMP,WINDOW     SHOWER     CHALKBOARD,104,1,11,0,0,5,FED_20200130d_3T2,30,167,,
NPROD,GLETCH    SNOLF    SWIRR    SNEBE,11,1,11,0,gletchsnolfswirrsneve,5,FED_20200130d_3T2,31,172,,
NPROD,VILGE    SNALP    SNYLE    SHRAFF,54,1,11,0,vilgesnalpsnyleshraff,5,FED_20200130d_3T2,32,179,,
NPROD,THWUIP    WHULP    FROLVE    YERB,16,1,11,0,thwuilpwhulpfrolveyer,5,FED_20200130d_3T2,33,186,,
NPROD,SHRAIM    THUICE    SKISE    SNARSH,13,1,11,0,shraimthuicskisesnarsh,5,FED_20200130d_3T2,34,193,,
SPROD,4704668708.jpg,15,1,11,0,a boy is opening a present,5,FED_20200130d_3T2,35,202,,
SPROD,4585839343.jpg,44,1,11,0,a girl is picking flowers,5,FED_20200130d_3T2,36,209,,
SPROD,7819772858.jpg,52,1,11,0,a man is surfing,5,FED_20200130d_3T2,37,216,,
SPROD,126594141.jpg,26,1,11,0,a girl is tying her shoe,5,FED_20200130d_3T2,38,223,,
EVSEM,4434125934.jpg,29,1,11,0,2,5,FED_20200130d_3T2,39,232,,
EVSEM,7995263133.jpg,64,1,11,0,1,5,FED_20200130d_3T2,40,235,,
EVSEM,3677329561.jpg,27,1,11,0,2,5,FED_20200130d_3T2,41,238,,
EVSEM,4766583860.jpg,38,1,11,0,2,5,FED_20200130d_3T2,42,241,,
WPROD,puppy_01b-chalkboard_08s-axe_12n.jpg,6,1,11,0,puppy chalkbaord ax,5,FED_20200130d_3T2,43,246,,
WPROD,shopping_cart_07s-piano_11n-crayon_17s.jpg,41,1,11,0,shopping cart piano crayons,5,FED_20200130d_3T2,44,253,,
WPROD,arm_07s-deer_06s-bubble_01b.jpg,57,1,11,0,armdeerbubble,5,FED_20200130d_3T2,45,260,,
WPROD,harp_05s-microscope_07s.jpg,26,1,11,0,harp microscope,5,FED_20200130d_3T2,46,267,,
SCOMP,A MAN IS MEDITATING IN A PARK,80,1,11,0,0,5,FED_20200130d_3T2,47,276,,
SCOMP,A WOMAN IS SITTING ON THE SUBWAY,81,1,11,0,0,5,FED_20200130d_3T2,48,279,,
SCOMP,A MAN IS SHAVING HIS FACE,101,1,11,0,0,5,FED_20200130d_3T2,49,282,,
SCOMP,A MAN IS VACUUMING,92,1,11,0,0,5,FED_20200130d_3T2,50,285,,
FIX,+,0,1,11,0,0,5,FED_20200130d_3T2,51,288,,
FIX,+,0,2,7,0,0,5,FED_20191120d_3T2,1,0,,
NPROD,BLORCE    STROFF    THREPE    THORGE,63,2,7,0,blorece stroff threpe thorge,5,FED_20191120d_3T2,2,14,,
NPROD,PHLIN    STRIDGE    SKUS    DWIB,51,2,7,0,philin stridge skus dwib,5,FED_20191120d_3T2,3,21,,
NPROD,SPLYBE    RHUNGE    VIFF    SPLIEVE,57,2,7,0,splybe rhunge viff splieve,5,FED_20191120d_3T2,4,28,,
NPROD,SLOIN    DWALF    THRALC    FRALK,58,2,7,0,sloin dwalf thralc fralk,5,FED_20191120d_3T2,5,35,,
WCOMP,ARM     DEER     BUBBLE,57,2,7,0,0,5,FED_20191120d_3T2,6,44,,
WCOMP,SWIMMING POOL     BABY     SIDEWALK,47,2,7,0,0,5,FED_20191120d_3T2,7,47,,
WCOMP,EYE     SHOVEL,11,2,7,0,0,5,FED_20191120d_3T2,8,50,,
WCOMP,HARP     MICROSCOPE,26,2,7,0,0,5,FED_20191120d_3T2,9,53,,
SCOMP,A GROUP OF DOGS ARE PLAYING IN A POOL,46,2,7,0,0,5,FED_20191120d_3T2,10,58,,
SCOMP,A BOY IS SITTING IN A TREE,30,2,7,0,0,5,FED_20191120d_3T2,11,61,,
SCOMP,A LITTLE BOY IS OPENING A PRESENT,15,2,7,0,0,5,FED_20191120d_3T2,12,64,,
SCOMP,TWO MEN ARE SHAVING THEIR HEADS,37,2,7,0,0,5,FED_20191120d_3T2,13,67,,
WPROD,frisbee_11s-shopping_cart_07s-eye_20s.jpg,97,2,7,0,afrisbe grocey cart eye,5,FED_20191120d_3T2,14,72,,
WPROD,hurdle-812853_960_720-brush_05s-newspapers-1412940_960_720.jpg,87,2,7,0,hurdle brusch newspaper,5,FED_20191120d_3T2,15,79,,
WPROD,ocean-918999_960_720-pool_table_03s-shopping-874974_960_720-map_08s.jpg,78,2,7,0,wave pool table bag map,5,FED_20191120d_3T2,16,86,,
WPROD,hula_hoop_10s-shirt_02s.jpg,103,2,7,0,hoolahopp shirt ,5,FED_20191120d_3T2,17,93,,
EVSEM,4445547327.jpg,112,2,7,0,1,5,FED_20191120d_3T2,18,102,,
EVSEM,5506407501.jpg,87,2,7,0,1,5,FED_20191120d_3T2,19,105,,
EVSEM,4464176007.jpg,119,2,7,0,2,5,FED_20191120d_3T2,20,108,,
EVSEM,23770160.jpg,113,2,7,0,2,5,FED_20191120d_3T2,21,111,,
SPROD,3800306463.jpg,77,2,7,0,holding cucumbers,5,FED_20191120d_3T2,22,116,,
SPROD,7742281954.jpg,85,2,7,0,playing trumpet,5,FED_20191120d_3T2,23,123,,
SPROD,5925544950.jpg,125,2,7,0,fishing,5,FED_20191120d_3T2,24,130,,
SPROD,3808935147.jpg,106,2,7,0,jumping on trampoline,5,FED_20191120d_3T2,25,137,,
FIX,+,0,2,7,0,0,5,FED_20191120d_3T2,26,144,,
SPROD,7119846943.jpg,75,2,7,0,hoola hoop contest,5,FED_20191120d_3T2,27,158,,
SPROD,4858197102.jpg,103,2,7,0,crying baby,5,FED_20191120d_3T2,28,165,,
SPROD,6338733.jpg,84,2,7,0,holding a sign,5,FED_20191120d_3T2,29,172,,
SPROD,5411504795.jpg,124,2,7,0,sniffing flower,5,FED_20191120d_3T2,30,179,,
EVSEM,4610962283.jpg,97,2,7,0,1,5,FED_20191120d_3T2,31,188,,
EVSEM,41105465.jpg,80,2,7,0,1,5,FED_20191120d_3T2,32,191,,
EVSEM,7348289414.jpg,108,2,7,0,2,5,FED_20191120d_3T2,33,194,,
EVSEM,8057415401.jpg,118,2,7,0,2,5,FED_20191120d_3T2,34,197,,
WPROD,tooth_09s-shoe_09s.jpg,79,2,7,0,teeth shoes,5,FED_20191120d_3T2,35,202,,
WPROD,snow_04s-tooth_09s.jpg,96,2,7,0,snow teeth,5,FED_20191120d_3T2,36,209,,
WPROD,sand_03s-sewing_machine_12s-chair_09s.jpg,125,2,7,0,sand sewing machine chair,5,FED_20191120d_3T2,37,216,,
WPROD,window_01b-hairbrush_01b.jpg,106,2,7,0,windoq brush,5,FED_20191120d_3T2,38,223,,
SCOMP,A MAN IS THROWING AN AXE,32,2,7,0,0,5,FED_20191120d_3T2,39,232,,
SCOMP,A WOMAN IS PUTTING ON LIPSTICK,36,2,7,0,0,5,FED_20191120d_3T2,40,235,,
SCOMP,TWO KIDS ARE SHOVELING SNOW,56,2,7,0,0,5,FED_20191120d_3T2,41,238,,
SCOMP,A WOMAN IS EATING NOODLES,42,2,7,0,0,5,FED_20191120d_3T2,42,241,,
WCOMP,SHOWER     MOUNTAIN     PILLOW,50,2,7,0,0,5,FED_20191120d_3T2,43,246,,
WCOMP,WAVE     TRAIN     RAILING,31,2,7,0,0,5,FED_20191120d_3T2,44,249,,
WCOMP,NOODLE     MOUNTAIN     PLANT,22,2,7,0,0,5,FED_20191120d_3T2,45,252,,
WCOMP,HAND     ROCK     TREADMILL     BROOM,15,2,7,0,0,5,FED_20191120d_3T2,46,255,,
NPROD,DWURB    SMULT    ZOUTE    DREALT,46,2,7,0,dqurb smnult zoute drealt,5,FED_20191120d_3T2,47,260,,
NPROD,THROOGE    TWIRTH    PLARSH    GWECK,14,2,7,0,trhooge twirth plasrh fg,5,FED_20191120d_3T2,48,267,,
NPROD,GLERK    JUTH    RHALP    SHRIECE,39,2,7,0,glwek jurh ehalp shriece,5,FED_20191120d_3T2,49,274,,
NPROD,PHRAN    SLASQUE    THWESS    SKOLE,22,2,7,0,phran slasquw thwess skol,5,FED_20191120d_3T2,50,281,,
FIX,+,0,2,7,0,0,5,FED_20191120d_3T2,51,288,,
FIX,+,0,1,9,0,0,4,FED_20200130a_3T2,1,0,,
EVSEM,4789495327.jpg,31,1,9,0,2,4,FED_20200130a_3T2,2,14,,
EVSEM,7188003.jpg,51,1,9,0,2,4,FED_20200130a_3T2,3,17,,
EVSEM,126594141.jpg,26,1,9,0,2,4,FED_20200130a_3T2,4,20,,
EVSEM,3818278154.jpg,39,1,9,0,2,4,FED_20200130a_3T2,5,23,,
SPROD,7380263314.jpg,1,1,9,0,firl platimg,4,FED_20200130a_3T2,6,28,,
SPROD,6110845331.jpg,24,1,9,0,"giorl; paom,tio,h",4,FED_20200130a_3T2,7,35,,
SPROD,4896173039.jpg,22,1,9,0,lsfdu trsfimg,4,FED_20200130a_3T2,8,42,,
SPROD,7028846053.jpg,42,1,9,0,"l;sdfu rstio,g",4,FED_20200130a_3T2,9,49,,
NPROD,PRAUGHT    GWAWK    SNEASH    PRUICE,19,1,9,0,prtsighjy desel dmrs,4,FED_20200130a_3T2,10,58,,
NPROD,DWIKE    SKEAVE    SPLOME    TRALSE,62,1,9,0,dujde3olr dklrsbr dp,4,FED_20200130a_3T2,11,65,,
NPROD,FRISP    SHRICK    PHLUICE    THWIN,33,1,9,0,ftigpdjtovlpjktjogg djitj fr,4,FED_20200130a_3T2,12,72,,
NPROD,THOFF    SNITH    FROOP    PHIMP,28,1,9,0,ppp[]deasoimg,4,FED_20200130a_3T2,13,79,,
WCOMP,SWING SET     HULA HOOP     SHOVEL     HAND,119,1,9,0,0,4,FED_20200130a_3T2,14,88,,
WCOMP,TOOTHBRUSH     CELLPHONE     MAP,82,1,9,0,0,4,FED_20200130a_3T2,15,91,,
WCOMP,CARDS     VACUUM     SHOPPING CART,66,1,9,0,0,4,FED_20200130a_3T2,16,94,,
WCOMP,BEACH     ARM     ROCK     RAZOR,72,1,9,0,0,4,FED_20200130a_3T2,17,97,,
SCOMP,A MAN IS VACUUMING,92,1,9,0,0,4,FED_20200130a_3T2,18,102,,
SCOMP,A WOMAN IS PLAYING THE HARP,97,1,9,0,0,4,FED_20200130a_3T2,19,105,,
SCOMP,A WOMAN IS PAINTING HER NAILS,95,1,9,0,0,4,FED_20200130a_3T2,20,108,,
SCOMP,A WOMAN IS JOGGING,115,1,9,0,0,4,FED_20200130a_3T2,21,111,,
WPROD,suitcase_01b-iron_04s-trampoline_14s.jpg,54,1,9,0,vasr otpm ,4,FED_20200130a_3T2,22,116,,
WPROD,bowling_ball_08s-tree_12s-lipstick_03s.jpg,64,1,9,0,p[;sf]ur duyrr,4,FED_20200130a_3T2,23,123,,
WPROD,hand_04s-rock_09s-treadmill_01b-broom_04s.jpg,15,1,9,0,"jusmf vasrfiop,l,pp[]",4,FED_20200130a_3T2,24,130,,
WPROD,cyprus-4026880_960_720-bird_12s-sponge_11s.jpg,43,1,9,0,bviorf go,4,FED_20200130a_3T2,25,137,,
FIX,+,0,1,9,0,0,4,FED_20200130a_3T2,26,144,,
WPROD,wood_05s-tooth_09s-dandelion_14s.jpg,33,1,9,0,eppfrteetg fgl;operttjsotf,4,FED_20200130a_3T2,27,158,,
WPROD,horse_15s-telescope_03n-shopping_cart_07s.jpg,32,1,9,0,r trerdvoprvj,4,FED_20200130a_3T2,28,165,,
WPROD,chalk_13s-stair_16s-fish_09s.jpg,40,1,9,0,sl;l duysortd,4,FED_20200130a_3T2,29,172,,
WPROD,violin_12n-iron_04s-newspapers-1412940_960_720-hand_04s.jpg,39,1,9,0,fgioyar urpm m,4,FED_20200130a_3T2,30,179,,
SCOMP,A LITTLE GIRL IS EATING A STRAWBERRY,104,1,9,0,0,4,FED_20200130a_3T2,31,188,,
SCOMP,A MAN IS SITTING ON A BENCH READING THE NEWSPAPER,119,1,9,0,0,4,FED_20200130a_3T2,32,191,,
SCOMP,A WOMAN IS HOLDING A PUPPY,79,1,9,0,0,4,FED_20200130a_3T2,33,194,,
SCOMP,A DOG IS SWIMMING IN A POOL,109,1,9,0,0,4,FED_20200130a_3T2,34,197,,
WCOMP,GUITAR     HOUSE     DISHES,107,1,9,0,0,4,FED_20200130a_3T2,35,202,,
WCOMP,SCISSORS     BEACH     POOL TABLE     PIANO,128,1,9,0,0,4,FED_20200130a_3T2,36,205,,
WCOMP,FRUIT     PUPPY,123,1,9,0,0,4,FED_20200130a_3T2,37,208,,
WCOMP,FLUTE     SIDEWALK     COCKTAIL     RAILING,108,1,9,0,0,4,FED_20200130a_3T2,38,211,,
NPROD,PROAT    SMAWN    SQUARK    TWAG,50,1,9,0,"proar s,aewmn swuar ty",4,FED_20200130a_3T2,39,216,,
NPROD,GWEAGUE    DRUS    FLIMN    SHRUV,56,1,9,0,gewghiue derius fkli,4,FED_20200130a_3T2,40,223,,
NPROD,SPROTH    SCRIF    FLURP    BLAIT,17,1,9,0,doriyj scvriuop fli,4,FED_20200130a_3T2,41,230,,
NPROD,BLORQUE    GHIMP    PHRAUCE    TRUME,55,1,9,0,rp svoorqwe fjop,4,FED_20200130a_3T2,42,237,,
SPROD,6225280494.jpg,9,1,9,0,",am ju,oimh ",4,FED_20200130a_3T2,43,246,,
SPROD,6915574150.jpg,6,1,9,0,vjiolf bridjimh,4,FED_20200130a_3T2,44,253,,
SPROD,807129.jpg,47,1,9,0,",an fgikhy",4,FED_20200130a_3T2,45,260,,
SPROD,4607606901.jpg,3,1,9,0,git paeeimg voe,4,FED_20200130a_3T2,46,267,,
EVSEM,4696829163.jpg,54,1,9,0,2,4,FED_20200130a_3T2,47,276,,
EVSEM,7995263133.jpg,64,1,9,0,1,4,FED_20200130a_3T2,48,279,,
EVSEM,2667549961.jpg,10,1,9,0,1,4,FED_20200130a_3T2,49,282,,
EVSEM,4896173039.jpg,22,1,9,0,2,4,FED_20200130a_3T2,50,285,,
FIX,+,0,1,9,0,0,4,FED_20200130a_3T2,51,288,,
FIX,+,0,1,6,0,0,6,FED_20200205a_3T2,1,0,,
NPROD,SLURCH    SNERTH    THWANGE    DRETE,24,1,6,0,slurch snerth thwange drete,6,FED_20200205a_3T2,2,14,,
NPROD,DWIKE    SKEAVE    SPLOME    TRALSE,62,1,6,0,dwike skeave splome tralse,6,FED_20200205a_3T2,3,21,,
NPROD,SHRUKE    STRESK    SNEGG    WRULT,3,1,6,0,shruke stresk snegg wrult,6,FED_20200205a_3T2,4,28,,
NPROD,SCRUSK    SPRIKE    FLARGE    TWUIFF,47,1,6,0,scrusk sprike flarge twuiff,6,FED_20200205a_3T2,5,35,,
SPROD,3819214047.jpg,59,1,6,0,a kid is sitting on a skateboard,6,FED_20200205a_3T2,6,44,,
SPROD,5534793306.jpg,48,1,6,0,a man is painting a pillar of building exterior,6,FED_20200205a_3T2,7,51,,
SPROD,5241718422.jpg,19,1,6,0,a man is runnign on treadmill,6,FED_20200205a_3T2,8,58,,
SPROD,5669914204.jpg,13,1,6,0,a kid is looking through a telescope ,6,FED_20200205a_3T2,9,65,,
EVSEM,3677329561.jpg,27,1,6,0,2,6,FED_20200205a_3T2,10,74,,
EVSEM,4696829163.jpg,54,1,6,0,2,6,FED_20200205a_3T2,11,77,,
EVSEM,5241718422.jpg,19,1,6,0,1,6,FED_20200205a_3T2,12,80,,
EVSEM,4387675829.jpg,14,1,6,0,1,6,FED_20200205a_3T2,13,83,,
WPROD,shoe_09s-bench_06s-horse_15s.jpg,21,1,6,0,"shoes, ebnch horse",6,FED_20200205a_3T2,14,88,,
WPROD,sand_03s-bubble_01b-accordion_12s.jpg,44,1,6,0,"sand, bubbles, accordion",6,FED_20200205a_3T2,15,95,,
WPROD,shirt_02s-puppy_01b-house-2365524_960_720-leaves-1721983_960_720.jpg,8,1,6,0,"shirt, puppy, wall grafitti, leaves",6,FED_20200205a_3T2,16,102,,
WPROD,violin_12n-iron_04s-newspapers-1412940_960_720-hand_04s.jpg,39,1,6,0,"cello, iron, paper, hand",6,FED_20200205a_3T2,17,109,,
SCOMP,A MAN IS PUSHING A COUCH DOWN A SIDEWALK,86,1,6,0,0,6,FED_20200205a_3T2,18,118,,
SCOMP,A MAN IS WRITING ON A CHALKBOARD,128,1,6,0,0,6,FED_20200205a_3T2,19,121,,
SCOMP,A WOMAN IS SMILING,90,1,6,0,0,6,FED_20200205a_3T2,20,124,,
SCOMP,A MAN IS CHOPPING WOOD,94,1,6,0,0,6,FED_20200205a_3T2,21,127,,
WCOMP,MAGNIFYING GLASS     LAWN,74,1,6,0,0,6,FED_20200205a_3T2,22,132,,
WCOMP,JUMPROPE     BOOK     BABY     FLOWER,80,1,6,0,0,6,FED_20200205a_3T2,23,135,,
WCOMP,SIDEWALK     FRISBEE     VACUUM     HARP,89,1,6,0,0,6,FED_20200205a_3T2,24,138,,
WCOMP,SAXOPHONE     CAMERA     BOWL,92,1,6,0,0,6,FED_20200205a_3T2,25,141,,
FIX,+,0,1,6,0,0,6,FED_20200205a_3T2,26,144,,
WCOMP,SNOW     CLIFF     STRAWBERRY,81,1,6,0,0,6,FED_20200205a_3T2,27,158,,
WCOMP,CASTLE     DANDELION     VIOLIN,101,1,6,0,0,6,FED_20200205a_3T2,28,161,,
WCOMP,SHOE     TELESCOPE     NOODLE     SKATEBOARD,100,1,6,0,0,6,FED_20200205a_3T2,29,164,,
WCOMP,FRUIT     PUPPY,123,1,6,0,0,6,FED_20200205a_3T2,30,167,,
SCOMP,A WOMAN IS WASHING THE DISHES,121,1,6,0,0,6,FED_20200205a_3T2,31,172,,
SCOMP,A WOMAN IS FISHING,125,1,6,0,0,6,FED_20200205a_3T2,32,175,,
SCOMP,A MAN IS IRONING A SHIRT,87,1,6,0,0,6,FED_20200205a_3T2,33,178,,
SCOMP,A MAN IS PLAYING GUITAR,113,1,6,0,0,6,FED_20200205a_3T2,34,181,,
WPROD,horse_15s-telescope_03n-shopping_cart_07s.jpg,32,1,6,0,"horse, telescope, shopping cart",6,FED_20200205a_3T2,35,186,,
WPROD,bowling_ball_08s-tree_12s-lipstick_03s.jpg,64,1,6,0,"bowling ball, tree lipstick",6,FED_20200205a_3T2,36,193,,
WPROD,hand_04s-rock_09s-treadmill_01b-broom_04s.jpg,15,1,6,0,"hand, rocks, treadmill, broom",6,FED_20200205a_3T2,37,200,,
WPROD,castle-2462133_960_720-paintbrush_10s-strawberry_04n.jpg,13,1,6,0,"castle, paintrbush,strawberry",6,FED_20200205a_3T2,38,207,,
EVSEM,126594141.jpg,26,1,6,0,2,6,FED_20200205a_3T2,39,216,,
EVSEM,4618092593.jpg,37,1,6,0,1,6,FED_20200205a_3T2,40,219,,
EVSEM,4688958106.jpg,8,1,6,0,1,6,FED_20200205a_3T2,41,222,,
EVSEM,4121133646.jpg,45,1,6,0,2,6,FED_20200205a_3T2,42,225,,
SPROD,126594141.jpg,26,1,6,0,a girl is tieing shoe on soccor field,6,FED_20200205a_3T2,43,230,,
SPROD,4896173039.jpg,22,1,6,0,a woman is reading a book ,6,FED_20200205a_3T2,44,237,,
SPROD,4607606901.jpg,3,1,6,0,a girl is petting a deer?\,6,FED_20200205a_3T2,45,244,,
SPROD,4050265867.jpg,18,1,6,0,a baby is yawning ,6,FED_20200205a_3T2,46,251,,
NPROD,PHRYBE    SPRELM    SPLURE    PRULGE,31,1,6,0,"phrybe, sprelm, splure, prulge",6,FED_20200205a_3T2,47,260,,
NPROD,SPREUTH    PHLAISE    SWIRGE    SHROD,20,1,6,0,spreuth phlaise swirge shrod,6,FED_20200205a_3T2,48,267,,
NPROD,GLETCH    SNOLF    SWIRR    SNEBE,11,1,6,0,sletch snolf swirr snebe,6,FED_20200205a_3T2,49,274,,
NPROD,FRUZZ    PHREEP    SHRY    SPLASS,6,1,6,0,sruzz phreep shry splass,6,FED_20200205a_3T2,50,281,,
FIX,+,0,1,6,0,0,6,FED_20200205a_3T2,51,288,,
FIX,+,0,2,4,0,0,3,FED_20191204a_3T2,1,0,,
SCOMP,A WOMAN IS BLOWING ON A DANDELION,44,2,4,0,0,3,FED_20191204a_3T2,2,14,,
SCOMP,A BOY IS USING A MAGNIFYING GLASS TO LOOK AT A ROCK,45,2,4,0,0,3,FED_20191204a_3T2,3,17,,
SCOMP,A WOMAN IS TYING HER SHOE ON A SOCCER FIELD,26,2,4,0,0,3,FED_20191204a_3T2,4,20,,
SCOMP,A GIRL IS PLAYING WITH A TOY TRAIN,14,2,4,0,0,3,FED_20191204a_3T2,5,23,,
WCOMP,SHOPPING CART     PIANO     CRAYON,41,2,4,0,0,3,FED_20191204a_3T2,6,28,,
WCOMP,SHOE     BENCH     HORSE,21,2,4,0,0,3,FED_20191204a_3T2,7,31,,
WCOMP,HAND     ROCK     TREADMILL     BROOM,15,2,4,0,0,3,FED_20191204a_3T2,8,34,,
WCOMP,BLOWDRYER     CUCUMBERS     SUITCASE     BROOM,2,2,4,0,0,3,FED_20191204a_3T2,9,37,,
NPROD,JALP    THWOOVE    SPRUSP    SCRILE,40,2,4,0,0,3,FED_20191204a_3T2,10,42,,
NPROD,THWOQUE    SMESH    PHLIEVE    THWEMP,25,2,4,0,0,3,FED_20191204a_3T2,11,49,,
NPROD,SPREETH    SHRADGE    PHRAW    PLONCH,4,2,4,0,0,3,FED_20191204a_3T2,12,56,,
NPROD,THRELL    FRUNG    VESK    THWEE,26,2,4,0,0,3,FED_20191204a_3T2,13,63,,
SPROD,6338733.jpg,84,2,4,0,f nfi pk ,3,FED_20191204a_3T2,14,72,,
SPROD,4715971264.jpg,88,2,4,0,bgi p l,3,FED_20191204a_3T2,15,79,,
SPROD,6915921596.jpg,114,2,4,0,ekbdi pd ,3,FED_20191204a_3T2,16,86,,
SPROD,4464176007.jpg,119,2,4,0,bfi pm trf;m,3,FED_20191204a_3T2,17,93,,
EVSEM,4548039526.jpg,69,2,4,0,2,3,FED_20191204a_3T2,18,102,,
EVSEM,36979.jpg,66,2,4,0,1,3,FED_20191204a_3T2,19,105,,
EVSEM,4445547327.jpg,112,2,4,0,1,3,FED_20191204a_3T2,20,108,,
EVSEM,4986581949.jpg,81,2,4,0,1,3,FED_20191204a_3T2,21,111,,
WPROD,flute_11s-paintbrush_10s-chicken2_07s.jpg,69,2,4,0,gvvgoly,3,FED_20191204a_3T2,22,116,,
WPROD,castle-2462133_960_720-dandelion_14s-violin_12n.jpg,101,2,4,0,vgcgho;t,3,FED_20191204a_3T2,23,123,,
WPROD,card_06s-vacuum_06s-shopping_cart_07s.jpg,66,2,4,0,jyvu ko .lkogtr,3,FED_20191204a_3T2,24,130,,
WPROD,hairdryer_09s-dish_11s.jpg,105,2,4,0,h tit f bg,3,FED_20191204a_3T2,25,137,,
FIX,+,0,2,4,0,0,3,FED_20191204a_3T2,26,144,,
WPROD,frisbee_11s-shopping_cart_07s-eye_20s.jpg,97,2,4,0,"vjlim,",3,FED_20191204a_3T2,27,158,,
WPROD,leaves-1721983_960_720-pipe1_12s-column_12s.jpg,71,2,4,0,mgllv,3,FED_20191204a_3T2,28,165,,
WPROD,balls-272409_960_720-ocean-918999_960_720.jpg,91,2,4,0,ofpy,3,FED_20191204a_3T2,29,172,,
WPROD,ocean-918999_960_720-pool_table_03s-shopping-874974_960_720-map_08s.jpg,78,2,4,0,mfp,3,FED_20191204a_3T2,30,179,,
EVSEM,4400746838.jpg,71,2,4,0,2,3,FED_20191204a_3T2,31,188,,
EVSEM,3652094744.jpg,65,2,4,0,1,3,FED_20191204a_3T2,32,191,,
EVSEM,5411504795.jpg,124,2,4,0,2,3,FED_20191204a_3T2,33,194,,
EVSEM,4572715888.jpg,74,2,4,0,2,3,FED_20191204a_3T2,34,197,,
SPROD,4400746838.jpg,71,2,4,0,1,3,FED_20191204a_3T2,35,202,,
SPROD,4555514125.jpg,86,2,4,0,ltio pg vlogoky,3,FED_20191204a_3T2,36,209,,
SPROD,36979.jpg,66,2,4,0,oykolyrfltm,3,FED_20191204a_3T2,37,216,,
SPROD,6094931376.jpg,100,2,4,0,"myi ];dpo,h vf",3,FED_20191204a_3T2,38,223,,
NPROD,DRAUTCH    BLOURSE    SHRAMN    RHONK,2,2,4,0,[yl[;y eflyo,3,FED_20191204a_3T2,39,232,,
NPROD,GLERK    JUTH    RHALP    SHRIECE,39,2,4,0,       kliufui,3,FED_20191204a_3T2,40,239,,
NPROD,SPLAUGE    SCRANK    PLEETH    DRYS,23,2,4,0,       djto; fkop[tl ][oo,3,FED_20191204a_3T2,41,246,,
NPROD,SMISE    SPLEGG    SCROUN    GNOLT,29,2,4,0,        fkop djlyy;; dv,3,FED_20191204a_3T2,42,253,,
WCOMP,NOODLE     MOUNTAIN     PLANT,22,2,4,0,0,3,FED_20191204a_3T2,43,262,,
WCOMP,CANOE     TOY TRAIN     DOG,18,2,4,0,0,3,FED_20191204a_3T2,44,265,,
WCOMP,RAZOR     PLANT     HAIR,48,2,4,0,0,3,FED_20191204a_3T2,45,268,,
WCOMP,HORSE     TELESCOPE     SHOPPING CART,32,2,4,0,0,3,FED_20191204a_3T2,46,271,,
SCOMP,A MAN IS SWEEPING THE STEPS,34,2,4,0,0,3,FED_20191204a_3T2,47,276,,
SCOMP,A MAN IS RUNNING ON A TREADMILL,19,2,4,0,0,3,FED_20191204a_3T2,48,279,,
SCOMP,A GIRL IS COLORING WITH CRAYONS,24,2,4,0,0,3,FED_20191204a_3T2,49,282,,
SCOMP,A BABY IS SITTING IN A SUITCASE,11,2,4,0,0,3,FED_20191204a_3T2,50,285,,
FIX,+,0,2,4,0,0,3,FED_20191204a_3T2,51,288,,
FIX,+,0,1,9,0,0,3,FED_20200130d_3T2,1,0,,
EVSEM,6721214117.jpg,41,1,9,0,1,3,FED_20200130d_3T2,2,14,,
EVSEM,4678843953.jpg,32,1,9,0,1,3,FED_20200130d_3T2,3,17,,
EVSEM,4621100791.jpg,5,1,9,0,2,3,FED_20200130d_3T2,4,20,,
EVSEM,4618092593.jpg,37,1,9,0,1,3,FED_20200130d_3T2,5,23,,
SPROD,4121133646.jpg,45,1,9,0,looking a a rock,3,FED_20200130d_3T2,6,28,,
SPROD,4855357158.jpg,23,1,9,0,canoing,3,FED_20200130d_3T2,7,35,,
SPROD,6721214117.jpg,41,1,9,0,bowling,3,FED_20200130d_3T2,8,42,,
SPROD,4621100791.jpg,5,1,9,0,sleeping outside,3,FED_20200130d_3T2,9,49,,
NPROD,SCRUITE    KNULF    YOOVE    THWOATHE,32,1,9,0,scruiteknulfyoovethwoathe,3,FED_20200130d_3T2,10,58,,
NPROD,GWEAGUE    DRUS    FLIMN    SHRUV,56,1,9,0,gweaguerusflimnshruv,3,FED_20200130d_3T2,11,65,,
NPROD,BLUIN    STRALF    TWUM    THRULCH,38,1,9,0,bluin stralftwum thrulch,3,FED_20200130d_3T2,12,72,,
NPROD,PLISC    SNULT    THUTCH    GWERF,43,1,9,0,pliscsnultthtuchgwerf,3,FED_20200130d_3T2,13,79,,
WCOMP,BUBBLE     HAND     CANOE,83,1,9,0,0,3,FED_20200130d_3T2,14,88,,
WCOMP,BOOT     TREE,86,1,9,0,0,3,FED_20200130d_3T2,15,91,,
WCOMP,LAWNMOWER     VACUUM     JUMPROPE,114,1,9,0,0,3,FED_20200130d_3T2,16,94,,
WCOMP,SWING SET     HULA HOOP     SHOVEL     HAND,119,1,9,0,0,3,FED_20200130d_3T2,17,97,,
SCOMP,A DOG IS SWIMMING IN A POOL,109,1,9,0,0,3,FED_20200130d_3T2,18,102,,
SCOMP,A MAN IS PAINTING A CASTLE,123,1,9,0,0,3,FED_20200130d_3T2,19,105,,
SCOMP,A BOY IS HOLDING A BIRD IN HIS HANDS,120,1,9,0,0,3,FED_20200130d_3T2,20,108,,
SCOMP,A LITTLE BOY IS POINTING AT SOMETHING,99,1,9,0,0,3,FED_20200130d_3T2,21,111,,
WPROD,chair_09s-cocktail_01b-deer_06s.jpg,60,1,9,0,chair martini deer,3,FED_20200130d_3T2,22,116,,
WPROD,chalk_13s-stair_16s-fish_09s.jpg,40,1,9,0,chalk starf;ish,3,FED_20200130d_3T2,23,123,,
WPROD,dog_01b-column_12s-wood_05s-hair_04s.jpg,34,1,9,0,dog column wood hair,3,FED_20200130d_3T2,24,130,,
WPROD,bowl_08s-pipe1_12s-flute_11s.jpg,20,1,9,0,bowl pipe flute,3,FED_20200130d_3T2,25,137,,
FIX,+,0,1,9,0,0,3,FED_20200130d_3T2,26,144,,
WPROD,fence_18s-skateboard_07s-horse_15s-trampoline_14s.jpg,42,1,9,0,fence skateboard hourse trampoline,3,FED_20200130d_3T2,27,158,,
WPROD,lipstick_03s-dog_01b-house-2365524_960_720-hair_04s.jpg,27,1,9,0,lipstickdog mural hair,3,FED_20200130d_3T2,28,165,,
WPROD,castle-2462133_960_720-paintbrush_10s-strawberry_04n.jpg,13,1,9,0,castlepaintbrush strawverrt,3,FED_20200130d_3T2,29,172,,
WPROD,ocean-918999_960_720-train_10n-railing_05s.jpg,31,1,9,0,swavetrainrailing,3,FED_20200130d_3T2,30,179,,
SCOMP,A YOUNG GIRL IS COVERING HER EYES,71,1,9,0,0,3,FED_20200130d_3T2,31,188,,
SCOMP,A LITTLE BOY IS HOLDING TWO LARGE CUCUMBERS,77,1,9,0,0,3,FED_20200130d_3T2,32,191,,
SCOMP,A GIRL IS PLAYING THE VIOLIN,112,1,9,0,0,3,FED_20200130d_3T2,33,194,,
SCOMP,A LITTLE GIRL IS JUMPING INTO A POOL,122,1,9,0,0,3,FED_20200130d_3T2,34,197,,
WCOMP,TOOTH     SHOE,79,1,9,0,0,3,FED_20200130d_3T2,35,202,,
WCOMP,CARDS     CAMERA,67,1,9,0,0,3,FED_20200130d_3T2,36,205,,
WCOMP,HOLE     MAGNIFYING GLASS,75,1,9,0,0,3,FED_20200130d_3T2,37,208,,
WCOMP,FLOWER     TRAIN,99,1,9,0,0,3,FED_20200130d_3T2,38,211,,
NPROD,GLERK    JUTH    RHALP    SHRIECE,39,1,9,0,glerk juth prhalpshriece,3,FED_20200130d_3T2,39,216,,
NPROD,BLORCE    STROFF    THREPE    THORGE,63,1,9,0,blorce stroff threpe thorge,3,FED_20200130d_3T2,40,223,,
NPROD,THOFF    SNITH    FROOP    PHIMP,28,1,9,0,thoff snith froopphimp,3,FED_20200130d_3T2,41,230,,
NPROD,PHRYBE    SPRELM    SPLURE    PRULGE,31,1,9,0,phrybge sprelmsplore proulge,3,FED_20200130d_3T2,42,237,,
SPROD,325742196.jpg,4,1,9,0,a girl is playing iwth toys,3,FED_20200130d_3T2,43,246,,
SPROD,4678843953.jpg,32,1,9,0,a man is throwing a ax,3,FED_20200130d_3T2,44,253,,
SPROD,41999070.jpg,46,1,9,0,dogs are swimming,3,FED_20200130d_3T2,45,260,,
SPROD,4580613274.jpg,34,1,9,0,a man is sweeping the stairs,3,FED_20200130d_3T2,46,267,,
EVSEM,3665441862.jpg,43,1,9,0,2,3,FED_20200130d_3T2,47,276,,
EVSEM,41999070.jpg,46,1,9,0,2,3,FED_20200130d_3T2,48,279,,
EVSEM,29850055.jpg,50,1,9,0,2,3,FED_20200130d_3T2,49,282,,
EVSEM,7380263314.jpg,1,1,9,0,2,3,FED_20200130d_3T2,50,285,,
FIX,+,0,1,9,0,0,3,FED_20200130d_3T2,51,288,,
FIX,+,0,1,10,0,0,4,FED_20200130d_3T2,1,0,,
WPROD,sidewalk-3999780_960_720-shirt_02s-ladder_01b.jpg,17,1,10,0,sidewalkshirteaasel,4,FED_20200130d_3T2,2,14,,
WPROD,bowling_ball_08s-tree_12s-lipstick_03s.jpg,64,1,10,0,bowling ball tree lipstick,4,FED_20200130d_3T2,3,21,,
WPROD,hand_08s-fruit_05s-balls-272409_960_720-railing_05s.jpg,5,1,10,0,handsfruitjuggling ballsrailin,4,FED_20200130d_3T2,4,28,,
WPROD,cellphone_13s-deer_06s-cucumber_07s.jpg,55,1,10,0,cell phone deer cucumbers,4,FED_20200130d_3T2,5,35,,
EVSEM,55903788.jpg,2,1,10,0,1,4,FED_20200130d_3T2,6,44,,
EVSEM,5534793306.jpg,48,1,10,0,2,4,FED_20200130d_3T2,7,47,,
EVSEM,6882674785.jpg,20,1,10,0,2,4,FED_20200130d_3T2,8,50,,
EVSEM,7579008108.jpg,53,1,10,0,2,4,FED_20200130d_3T2,9,53,,
SPROD,6596861005.jpg,17,1,10,0,reading a map,4,FED_20200130d_3T2,10,58,,
SPROD,7579008108.jpg,53,1,10,0,a man is jumping from a cliff,4,FED_20200130d_3T2,11,65,,
SPROD,6939434967.jpg,55,1,10,0,kids are playing jjumprope,4,FED_20200130d_3T2,12,72,,
SPROD,4772785237.jpg,25,1,10,0,a man is sweepiong the sidewalk,4,FED_20200130d_3T2,13,79,,
NPROD,THWOQUE    SMESH    PHLIEVE    THWEMP,25,1,10,0,thwoque smeshphlievethwemp,4,FED_20200130d_3T2,14,88,,
NPROD,PRAUCE    SKOURGE    ZORCH    DWOAL,12,1,10,0,prauce skourge zorch sqoal,4,FED_20200130d_3T2,15,95,,
NPROD,PHRAN    SLASQUE    THWESS    SKOLE,22,1,10,0,phranslasquethwessskole,4,FED_20200130d_3T2,16,102,,
NPROD,SLURCH    SNERTH    THWANGE    DRETE,24,1,10,0,slurchsnerththwangedrete,4,FED_20200130d_3T2,17,109,,
WCOMP,HULA HOOP     HOUSE PLANT     SPONGE     MAP,124,1,10,0,0,4,FED_20200130d_3T2,18,118,,
WCOMP,SNOW     CLIFF     STRAWBERRY,81,1,10,0,0,4,FED_20200130d_3T2,19,121,,
WCOMP,MAGNIFYING GLASS     LAWN,74,1,10,0,0,4,FED_20200130d_3T2,20,124,,
WCOMP,GIFT     DISHRACK     CRAYON,122,1,10,0,0,4,FED_20200130d_3T2,21,127,,
SCOMP,A MAN IS DIGGING A HOLE,67,1,10,0,0,4,FED_20200130d_3T2,22,132,,
SCOMP,TWO GIRLS ARE ARM-WRESTLING,117,1,10,0,0,4,FED_20200130d_3T2,23,135,,
SCOMP,A MAN IS PAINTING A MURAL,126,1,10,0,0,4,FED_20200130d_3T2,24,138,,
SCOMP,A WOMAN IS PLAYING THE HARP,97,1,10,0,0,4,FED_20200130d_3T2,25,141,,
FIX,+,0,1,10,0,0,4,FED_20200130d_3T2,26,144,,
SCOMP,A MAN IS PLAYING THE SAXOPHONE,85,1,10,0,0,4,FED_20200130d_3T2,27,158,,
SCOMP,A MAN IS PLAYING POOL,83,1,10,0,0,4,FED_20200130d_3T2,28,161,,
SCOMP,A MAN IS CHOPPING WOOD,94,1,10,0,0,4,FED_20200130d_3T2,29,164,,
SCOMP,A WOMAN IS PAINTING HER NAILS,95,1,10,0,0,4,FED_20200130d_3T2,30,167,,
WCOMP,SNAIL     ICE CREAM     GUITAR,68,1,10,0,0,4,FED_20200130d_3T2,31,172,,
WCOMP,SAXOPHONE     CAMERA     BOWL,92,1,10,0,0,4,FED_20200130d_3T2,32,175,,
WCOMP,GUITAR     HOUSE     DISHES,107,1,10,0,0,4,FED_20200130d_3T2,33,178,,
WCOMP,SAND     SEWING MACHINE     CHAIR,125,1,10,0,0,4,FED_20200130d_3T2,34,181,,
NPROD,SWULGE    FLOMP    SPLYNCH    SPREP,30,1,10,0,swulgeflompsplycnhsprep,4,FED_20200130d_3T2,35,186,,
NPROD,SMISE    SPLEGG    SCROUN    GNOLT,29,1,10,0,smisespleggscroungnolt,4,FED_20200130d_3T2,36,193,,
NPROD,TROLF    FLUINT    PLYBE    SPRUITE,9,1,10,0,trolffluintplybespruite,4,FED_20200130d_3T2,37,200,,
NPROD,THROOGE    TWIRTH    PLARSH    GWECK,14,1,10,0,throogetwirthplarshgweck,4,FED_20200130d_3T2,38,207,,
SPROD,6915574150.jpg,6,1,10,0,a girl is holding a oothbrush,4,FED_20200130d_3T2,39,216,,
SPROD,35268263.jpg,60,1,10,0,a woman is sweing,4,FED_20200130d_3T2,40,223,,
SPROD,1414454789.jpg,61,1,10,0,people are cooking,4,FED_20200130d_3T2,41,230,,
SPROD,4263999253.jpg,56,1,10,0,kids are shoveling snow,4,FED_20200130d_3T2,42,237,,
EVSEM,4704668708.jpg,15,1,10,0,1,4,FED_20200130d_3T2,43,246,,
EVSEM,4789495327.jpg,31,1,10,0,2,4,FED_20200130d_3T2,44,249,,
EVSEM,5669914204.jpg,13,1,10,0,2,4,FED_20200130d_3T2,45,252,,
EVSEM,126594141.jpg,26,1,10,0,2,4,FED_20200130d_3T2,46,255,,
WPROD,cyprus-4026880_960_720-bird_12s-sponge_11s.jpg,43,1,10,0,cliffbirdsponge,4,FED_20200130d_3T2,47,260,,
WPROD,lawnmower_07s-sponge_11s.jpg,19,1,10,0,lawnmowersponge,4,FED_20200130d_3T2,48,267,,
WPROD,violin_12n-iron_04s-newspapers-1412940_960_720-hand_04s.jpg,39,1,10,0,violinironnewspaper hand,4,FED_20200130d_3T2,49,274,,
WPROD,swimming_pool_18s-toothbrush_08s-snail_01b-fence_18s.jpg,53,1,10,0,p[p; toppthjbriushjsmao; uard,4,FED_20200130d_3T2,50,281,,
FIX,+,0,1,10,0,0,4,FED_20200130d_3T2,51,288,,
FIX,+,0,1,3,0,0,3,FED_20191204c_3T2,1,0,,
WPROD,razor_03s-plant_09s-hair_04s.jpg,48,1,3,0,M['NNOR,3,FED_20191204c_3T2,2,14,,
WPROD,bird_12s-razor_03s.jpg,25,1,3,0,MP,3,FED_20191204c_3T2,3,21,,
WPROD,chalk_13s-bench_06s-microscope_07s-chicken2_07s.jpg,38,1,3,0,CHALK NEMCH,3,FED_20191204c_3T2,4,28,,
WPROD,treadmill_01b-chalk_13s.jpg,61,1,3,0,TEAKD0PP,3,FED_20191204c_3T2,5,35,,
SCOMP,A GIRL IS HULA-HOOPING,75,1,3,0,0,3,FED_20191204c_3T2,6,44,,
SCOMP,A MAN IS WASHING WINDOWS,96,1,3,0,0,3,FED_20191204c_3T2,7,47,,
SCOMP,A YOUNG GIRL IS COVERING HER EYES,71,1,3,0,0,3,FED_20191204c_3T2,8,50,,
SCOMP,A MAN IS CHOPPING WOOD,94,1,3,0,0,3,FED_20191204c_3T2,9,53,,
WCOMP,TREE     CHECKERS     TREADMILL,76,1,3,0,0,3,FED_20191204c_3T2,10,58,,
WCOMP,JUGGLING BALLS     WAVE,91,1,3,0,0,3,FED_20191204c_3T2,11,61,,
WCOMP,AXE     HAND     SHOPPING CART,113,1,3,0,0,3,FED_20191204c_3T2,12,64,,
WCOMP,DANDELION     BOOK     SNAIL     GIFT,88,1,3,0,0,3,FED_20191204c_3T2,13,67,,
NPROD,STRUTCH    SPRETE    SPREACE    SLEFF,59,1,3,0,SCTHJCV S-WTT SHRAP,3,FED_20191204c_3T2,14,72,,
NPROD,PHROAL    GLETT    BLEZ    SWEACH,15,1,3,0,GPETT,3,FED_20191204c_3T2,15,79,,
NPROD,ZOOTH    GLANC    PHLOURGE    PHLIDGE,41,1,3,0,Z0TH,3,FED_20191204c_3T2,16,86,,
NPROD,SPLYBE    RHUNGE    VIFF    SPLIEVE,57,1,3,0,GHAOVH,3,FED_20191204c_3T2,17,93,,
SPROD,4580613274.jpg,34,1,3,0,TJDEKE-9JH ,3,FED_20191204c_3T2,18,102,,
SPROD,4705826062.jpg,49,1,3,0,RSY9JH 9VRVTSM,3,FED_20191204c_3T2,19,109,,
SPROD,6110845331.jpg,24,1,3,0,FTSE9JH,3,FED_20191204c_3T2,20,116,,
SPROD,4766583860.jpg,38,1,3,0,DE9H9NH,3,FED_20191204c_3T2,21,123,,
EVSEM,3677329561.jpg,27,1,3,0,ONE,3,FED_20191204c_3T2,22,132,,
EVSEM,55903788.jpg,2,1,3,0,ONE,3,FED_20191204c_3T2,23,135,,
EVSEM,4688958106.jpg,8,1,3,0,ONE,3,FED_20191204c_3T2,24,138,,
EVSEM,7579008108.jpg,53,1,3,0,TWO,3,FED_20191204c_3T2,25,141,,
FIX,+,0,1,3,0,0,3,FED_20191204c_3T2,26,144,,
EVSEM,4434125934.jpg,29,1,3,0,POT,3,FED_20191204c_3T2,27,158,,
EVSEM,5669914204.jpg,13,1,3,0,TPW,3,FED_20191204c_3T2,28,161,,
EVSEM,4772785237.jpg,25,1,3,0,TWP,3,FED_20191204c_3T2,29,164,,
EVSEM,3818278154.jpg,39,1,3,0,TWP,3,FED_20191204c_3T2,30,167,,
SPROD,4585839343.jpg,44,1,3,0,DANDEPOMS,3,FED_20191204c_3T2,31,172,,
SPROD,6681702227.jpg,33,1,3,0,GAR9CU7T,3,FED_20191204c_3T2,32,179,,
SPROD,6845394024.jpg,7,1,3,0,CRSHING TEETH,3,FED_20191204c_3T2,33,186,,
SPROD,4896173039.jpg,22,1,3,0,READ8HG ,3,FED_20191204c_3T2,34,193,,
NPROD,SHRUKE    STRESK    SNEGG    WRULT,3,1,3,0,SJICKE STRAISL,3,FED_20191204c_3T2,35,202,,
NPROD,PHLOUL    THRAB    TWARSE    TWAUN,18,1,3,0,[FPIW;,3,FED_20191204c_3T2,36,209,,
NPROD,PHLOOGE    SMU    GWOAM    TROOCH,10,1,3,0,\=0WDGEG,3,FED_20191204c_3T2,37,216,,
NPROD,DRAUTCH    BLOURSE    SHRAMN    RHONK,2,1,3,0,SK0 FRATCVU,3,FED_20191204c_3T2,38,223,,
WCOMP,BOOT     TREE,86,1,3,0,0,3,FED_20191204c_3T2,39,232,,
WCOMP,BUBBLE     HAND     CANOE,83,1,3,0,0,3,FED_20191204c_3T2,40,235,,
WCOMP,TOY TRAIN     ACCORDION     CHICKEN,73,1,3,0,0,3,FED_20191204c_3T2,41,238,,
WCOMP,NEWSPAPER     WINDOW,115,1,3,0,0,3,FED_20191204c_3T2,42,241,,
SCOMP,A YOUNG GIRL IS SITTING ON A RAILING,76,1,3,0,0,3,FED_20191204c_3T2,43,246,,
SCOMP,A MAN IS JUGGLING THREE BALLS,88,1,3,0,0,3,FED_20191204c_3T2,44,249,,
SCOMP,A LITTLE BOY IS HOLDING TWO LARGE CUCUMBERS,77,1,3,0,0,3,FED_20191204c_3T2,45,252,,
SCOMP,A MAN IS WRITING ON A CHALKBOARD,128,1,3,0,0,3,FED_20191204c_3T2,46,255,,
WPROD,shopping_cart_07s-piano_11n-crayon_17s.jpg,41,1,3,0,SGRAKS CART [0AN-,3,FED_20191204c_3T2,47,260,,
WPROD,saxophone_09s-train_set_07s-hairbrush_01b.jpg,59,1,3,0,CSAZ TAR9JM,3,FED_20191204c_3T2,48,267,,
WPROD,broom_04s-hurdle-812853_960_720-background-3062011_960_720-cellphone_13s.jpg,35,1,3,0,"VVR00[, F8RD0G C0P9KJ",3,FED_20191204c_3T2,49,274,,
WPROD,dog_01b-column_12s-wood_05s-hair_04s.jpg,34,1,3,0,P0G SNPW,3,FED_20191204c_3T2,50,281,,
FIX,+,0,1,3,0,0,3,FED_20191204c_3T2,51,288,,
FIX,+,0,1,8,0,0,5,FED_20200130a_3T2,1,0,,
SPROD,7995263133.jpg,64,1,8,0,d;rrpimg vjo;f ,5,FED_20200130a_3T2,2,14,,
SPROD,5194023863.jpg,28,1,8,0,got vko;f eotk,5,FED_20200130a_3T2,3,21,,
SPROD,4618092593.jpg,37,1,8,0,".s, giuom,h jsot",5,FED_20200130a_3T2,4,28,,
SPROD,4704668708.jpg,15,1,8,0," goit,;oolimh st eo,",5,FED_20200130a_3T2,5,35,,
NPROD,SPRASH    SPROAT    STREVE    BLAUB,37,1,8,0,dp[rtsf]ju dp[rpst] dytrnr d;p,5,FED_20200130a_3T2,6,44,,
NPROD,BLOLT    SLOAL    SNEAF    TWORCE,34,1,8,0,lly dloeasl dsmrsd,5,FED_20200130a_3T2,7,51,,
NPROD,TWACK    GWURP    TWONT    SPRATH,7,1,8,0,grsfgvl deo[t p;poi,5,FED_20200130a_3T2,8,58,,
NPROD,PLOUTH    STRAUVE    YENGE    THWURCH,53,1,8,0,t]j dsyara,5,FED_20200130a_3T2,9,65,,
WCOMP,WATER BOTTLE     IRON     CARD     HAND,65,1,8,0,0,5,FED_20200130a_3T2,10,74,,
WCOMP,LAWNMOWER     VACUUM     JUMPROPE,114,1,8,0,0,5,FED_20200130a_3T2,11,77,,
WCOMP,HULA HOOP     SHIRT,103,1,8,0,0,5,FED_20200130a_3T2,12,80,,
WCOMP,JUGGLING BALLS     WAVE,91,1,8,0,0,5,FED_20200130a_3T2,13,83,,
SCOMP,A WOMAN IS CARRYING A BOWL OF FRUIT ON HER HEAD,70,1,8,0,0,5,FED_20200130a_3T2,14,88,,
SCOMP,A LITTLE BOY IS HOLDING TWO LARGE CUCUMBERS,77,1,8,0,0,5,FED_20200130a_3T2,15,91,,
SCOMP,A MAN IS MEDITATING IN A PARK,80,1,8,0,0,5,FED_20200130a_3T2,16,94,,
SCOMP,A LITTLE GIRL IS JUMPING INTO A POOL,122,1,8,0,0,5,FED_20200130a_3T2,17,97,,
WPROD,hand_08s-fruit_05s-balls-272409_960_720-railing_05s.jpg,5,1,8,0,hjamd fruit ,5,FED_20200130a_3T2,18,102,,
WPROD,hole_09s-scissors_02s-noodle_12s.jpg,62,1,8,0,wimfowscfidediord,5,FED_20200130a_3T2,19,109,,
WPROD,bird_12s-apple_10s-skateboard_07s.jpg,23,1,8,0,gruot v,5,FED_20200130a_3T2,20,116,,
WPROD,eye_20s-shovel_09s.jpg,11,1,8,0,itdf eye vi9rf,5,FED_20200130a_3T2,21,123,,
EVSEM,6110845331.jpg,24,1,8,0,2,5,FED_20200130a_3T2,22,132,,
EVSEM,4772785237.jpg,25,1,8,0,2,5,FED_20200130a_3T2,23,135,,
EVSEM,4263999253.jpg,56,1,8,0,2,5,FED_20200130a_3T2,24,138,,
EVSEM,4121133646.jpg,45,1,8,0,1,5,FED_20200130a_3T2,25,141,,
FIX,+,0,1,8,0,0,5,FED_20200130a_3T2,26,144,,
EVSEM,6915574150.jpg,6,1,8,0,1,5,FED_20200130a_3T2,27,158,,
EVSEM,3672940355.jpg,12,1,8,0,2,5,FED_20200130a_3T2,28,161,,
EVSEM,4678843953.jpg,32,1,8,0,1,5,FED_20200130a_3T2,29,164,,
EVSEM,7579008108.jpg,53,1,8,0,2,5,FED_20200130a_3T2,30,167,,
WPROD,lawnmower_07s-sponge_11s.jpg,19,1,8,0,vsrt bbikc dsoasprs,5,FED_20200130a_3T2,31,172,,
WPROD,razor_03s-plant_09s-hair_04s.jpg,48,1,8,0,citrcitr psmt,5,FED_20200130a_3T2,32,179,,
WPROD,dish_11s-plant_09s-violin_12n-leaves-1721983_960_720.jpg,14,1,8,0,gjioyaart,5,FED_20200130a_3T2,33,186,,
WPROD,piano_11n-frisbee_11s-stair_16s-apple_10s.jpg,7,1,8,0,pioamo griot dyiasrtd,5,FED_20200130a_3T2,34,193,,
SCOMP,TWO OLDER MEN ARE WALKING ON THE BEACH,69,1,8,0,0,5,FED_20200130a_3T2,35,202,,
SCOMP,A MAN IS PAINTING A MURAL,126,1,8,0,0,5,FED_20200130a_3T2,36,205,,
SCOMP,A BABY IS CRYING,110,1,8,0,0,5,FED_20200130a_3T2,37,208,,
SCOMP,A WOMAN IS FISHING,125,1,8,0,0,5,FED_20200130a_3T2,38,211,,
WCOMP,TREE     CHECKERS     TREADMILL,76,1,8,0,0,5,FED_20200130a_3T2,39,216,,
WCOMP,WINDOW     SHOWER     CHALKBOARD,104,1,8,0,0,5,FED_20200130a_3T2,40,219,,
WCOMP,GIFT     HOLE,110,1,8,0,0,5,FED_20200130a_3T2,41,222,,
WCOMP,HULA HOOP     HOUSE PLANT     SPONGE     MAP,124,1,8,0,0,5,FED_20200130a_3T2,42,225,,
NPROD,VILGE    SNALP    SNYLE    SHRAFF,54,1,8,0,vilhe snalp sule shraff s,5,FED_20200130a_3T2,43,230,,
NPROD,PLOGUE    SCROOT    KNARP    SWEUTH,52,1,8,0,"pl;ihier sfvrtiooy kmas,",5,FED_20200130a_3T2,44,237,,
NPROD,SMISE    SPLEGG    SCROUN    GNOLT,29,1,8,0,0ise splegg svroiump,5,FED_20200130a_3T2,45,244,,
NPROD,PHRYBE    SPRELM    SPLURE    PRULGE,31,1,8,0,"jtime dp[rel;], ",5,FED_20200130a_3T2,46,251,,
SPROD,5840187633.jpg,35,1,8,0,".a, v;armoimg varttwom, ",5,FED_20200130a_3T2,47,260,,
SPROD,4621100791.jpg,5,1,8,0,rtedtomh,5,FED_20200130a_3T2,48,267,,
SPROD,4050265867.jpg,18,1,8,0,mnamt eawning,5,FED_20200130a_3T2,49,274,,
SPROD,6354735653.jpg,62,1,8,0,hou tekkimh ,5,FED_20200130a_3T2,50,281,,
FIX,+,0,1,8,0,0,5,FED_20200130a_3T2,51,288,,
FIX,+,0,1,9,0,0,4,FED_20200205c_3T2,1,0,,
EVSEM,3677329561.jpg,27,1,9,0,2,4,FED_20200205c_3T2,2,14,,
EVSEM,6721214117.jpg,41,1,9,0,1,4,FED_20200205c_3T2,3,17,,
EVSEM,6915574150.jpg,6,1,9,0,1,4,FED_20200205c_3T2,4,20,,
EVSEM,3665441862.jpg,43,1,9,0,2,4,FED_20200205c_3T2,5,23,,
SPROD,2667549961.jpg,10,1,9,0,A BABY IS REACHING FOR A WATER BOTTLE,4,FED_20200205c_3T2,6,28,,
SPROD,6596861005.jpg,17,1,9,0,A WOMAN IS READING A MAP,4,FED_20200205c_3T2,7,35,,
SPROD,7579008108.jpg,53,1,9,0,A MAN IS CLIFF DIVING,4,FED_20200205c_3T2,8,42,,
SPROD,4789495327.jpg,31,1,9,0,A WOMAN IS ON THE PHONE,4,FED_20200205c_3T2,9,49,,
NPROD,SPREETH    SHRADGE    PHRAW    PLONCH,4,1,9,0,SPREETH SHRADGE PHRAW PLONCH,4,FED_20200205c_3T2,10,58,,
NPROD,SMON    SPROE    PHLISH    SCROAT,8,1,9,0,SMON SPROE PHLISH SCROAT,4,FED_20200205c_3T2,11,65,,
NPROD,SMEAGUE    FLEPE    BLIEN    THRUTT,49,1,9,0,SMEAGUE FLEPE BLIEN THRUTT,4,FED_20200205c_3T2,12,72,,
NPROD,SCRUSK    SPRIKE    FLARGE    TWUIFF,47,1,9,0,SCRUSK SPRIKE FLARGE GWUIFF,4,FED_20200205c_3T2,13,79,,
WCOMP,SIDEWALK     FRISBEE     VACUUM     HARP,89,1,9,0,0,4,FED_20200205c_3T2,14,88,,
WCOMP,HARP     STRAWBERRY     SAND,127,1,9,0,0,4,FED_20200205c_3T2,15,91,,
WCOMP,FRUIT     PUPPY,123,1,9,0,0,4,FED_20200205c_3T2,16,94,,
WCOMP,ROLLERSKATES     EYE     MOUNTAIN,77,1,9,0,0,4,FED_20200205c_3T2,17,97,,
SCOMP,A MAN IS JUGGLING THREE BALLS,88,1,9,0,0,4,FED_20200205c_3T2,18,102,,
SCOMP,A MAN IS SHAVING HIS FACE,101,1,9,0,0,4,FED_20200205c_3T2,19,105,,
SCOMP,A YOUNG CHILD IS EATING AN APPLE,108,1,9,0,0,4,FED_20200205c_3T2,20,108,,
SCOMP,A WOMAN IS BLOWING LEAVES WITH A LEAF BLOWER,107,1,9,0,0,4,FED_20200205c_3T2,21,111,,
WPROD,couch_18n-bowl_08s-swimming_pool_18s-swing_set_03s.jpg,46,1,9,0,COUCH BOWL SWIMMING POOL SWING,4,FED_20200205c_3T2,22,116,,
WPROD,pipe1_12s-chalk_13s-dishwasher_07s-hairbrush_01b.jpg,49,1,9,0,INSTRUMENT CHALK DISHWASHER BRUSH,4,FED_20200205c_3T2,23,123,,
WPROD,piano_11n-frisbee_11s-stair_16s-apple_10s.jpg,7,1,9,0,PIANO FRISBEE STAIRS APPLE,4,FED_20200205c_3T2,24,130,,
WPROD,wood_05s-tooth_09s-dandelion_14s.jpg,33,1,9,0,WOOD TEETH DANDELION,4,FED_20200205c_3T2,25,137,,
FIX,+,0,1,9,0,0,4,FED_20200205c_3T2,26,144,,
WPROD,cucumber_07s-guitar_12s-brush_05s.jpg,3,1,9,0,CUCUMBER GUITAR BRUSH,4,FED_20200205c_3T2,27,158,,
WPROD,broom_04s-hurdle-812853_960_720-background-3062011_960_720-cellphone_13s.jpg,35,1,9,0,BROOM HURDLE BGEACH CELL PHONE,4,FED_20200205c_3T2,28,165,,
WPROD,boot_13s-pillow_13n-telescope_03n.jpg,36,1,9,0,BOOTS PILLOW TELESCOPE,4,FED_20200205c_3T2,29,172,,
WPROD,noodle_12s-toothbrush_08s-book_08s-grass-220465_960_720.jpg,58,1,9,0,SPAGHETTI TOOTHBRUSH BOOK YARD,4,FED_20200205c_3T2,30,179,,
SCOMP,A MAN IS PLAYING THE SAXOPHONE,85,1,9,0,0,4,FED_20200205c_3T2,31,188,,
SCOMP,A MAN IS SMOKING A PIPE,73,1,9,0,0,4,FED_20200205c_3T2,32,191,,
SCOMP,A WOMAN IS SMILING,90,1,9,0,0,4,FED_20200205c_3T2,33,194,,
SCOMP,A LITTLE GIRL IS SMELLING A FLOWER,124,1,9,0,0,4,FED_20200205c_3T2,34,197,,
WCOMP,TREE     CHECKERS     TREADMILL,76,1,9,0,0,4,FED_20200205c_3T2,35,202,,
WCOMP,CARDS     CAMERA,67,1,9,0,0,4,FED_20200205c_3T2,36,205,,
WCOMP,BEACH     POOL TABLE     GROCERY BAG     MAP,78,1,9,0,0,4,FED_20200205c_3T2,37,208,,
WCOMP,TOOTH     SHOE,79,1,9,0,0,4,FED_20200205c_3T2,38,211,,
NPROD,PHRYBE    SPRELM    SPLURE    PRULGE,31,1,9,0,PHRYBE SPRELM SPLURE PRULGE,4,FED_20200205c_3T2,39,216,,
NPROD,PROAT    SMAWN    SQUARK    TWAG,50,1,9,0,PROAT SMAWN SQUARK TWAG,4,FED_20200205c_3T2,40,223,,
NPROD,ZOOTH    GLANC    PHLOURGE    PHLIDGE,41,1,9,0,ZOOTH GLANC PHLOUGGE PHLIDGE,4,FED_20200205c_3T2,41,230,,
NPROD,THOFF    SNITH    FROOP    PHIMP,28,1,9,0,THOFF SNITH FROOP PHIMP,4,FED_20200205c_3T2,42,237,,
SPROD,4050265867.jpg,18,1,9,0,A BABY IS YAWNING,4,FED_20200205c_3T2,43,246,,
SPROD,5669914204.jpg,13,1,9,0,A YOUNG BOY IS LOOKING OUT OF A TELESCOPE,4,FED_20200205c_3T2,44,253,,
SPROD,5534793306.jpg,48,1,9,0,A MAN IS PAINTING,4,FED_20200205c_3T2,45,260,,
SPROD,4704668708.jpg,15,1,9,0,A BOY IS OPENING A GIFT,4,FED_20200205c_3T2,46,267,,
EVSEM,7579008108.jpg,53,1,9,0,2,4,FED_20200205c_3T2,47,276,,
EVSEM,1414454789.jpg,61,1,9,0,1,4,FED_20200205c_3T2,48,279,,
EVSEM,4607606901.jpg,3,1,9,0,2,4,FED_20200205c_3T2,49,282,,
EVSEM,6939434967.jpg,55,1,9,0,2,4,FED_20200205c_3T2,50,285,,
FIX,+,0,1,9,0,0,4,FED_20200205c_3T2,51,288,,
FIX,+,0,1,5,0,0,2,FED_20200130b_3T2,1,0,,
WCOMP,SNAIL     ICE CREAM     GUITAR,68,1,5,0,0,2,FED_20200130b_3T2,2,14,,
WCOMP,DISHRACK     HULA HOOP     SNOW     NEWSPAPER,90,1,5,0,0,2,FED_20200130b_3T2,3,17,,
WCOMP,SCISSORS     CASTLE     BENCH,117,1,5,0,0,2,FED_20200130b_3T2,4,20,,
WCOMP,JUMPROPE     BOOK     BABY     FLOWER,80,1,5,0,0,2,FED_20200130b_3T2,5,23,,
NPROD,DWURB    SMULT    ZOUTE    DREALT,46,1,5,0,swurb smult oute drealt ,2,FED_20200130b_3T2,6,28,,
NPROD,SPREUTH    PHLAISE    SWIRGE    SHROD,20,1,5,0,spreuth phlaise swirge shrod ,2,FED_20200130b_3T2,7,35,,
NPROD,GLERK    JUTH    RHALP    SHRIECE,39,1,5,0,glerk juth rhalp shriece ,2,FED_20200130b_3T2,8,42,,
NPROD,BLORCE    STROFF    THREPE    THORGE,63,1,5,0,blorce stroff threpe thorge ,2,FED_20200130b_3T2,9,49,,
SPROD,4607606901.jpg,3,1,5,0,girl petting deer ,2,FED_20200130b_3T2,10,58,,
SPROD,4585839343.jpg,44,1,5,0,blowing dandelions ,2,FED_20200130b_3T2,11,65,,
SPROD,6939434967.jpg,55,1,5,0,jumnping rope ,2,FED_20200130b_3T2,12,72,,
SPROD,4855357158.jpg,23,1,5,0,portageing a canoe ,2,FED_20200130b_3T2,13,79,,
EVSEM,6110845331.jpg,24,1,5,0,1,2,FED_20200130b_3T2,14,88,,
EVSEM,6237339784.jpg,30,1,5,0,2,2,FED_20200130b_3T2,15,91,,
EVSEM,6939434967.jpg,55,1,5,0,2,2,FED_20200130b_3T2,16,94,,
EVSEM,5669914204.jpg,13,1,5,0,0,2,FED_20200130b_3T2,17,97,,
WPROD,shopping_cart_07s-piano_11n-crayon_17s.jpg,41,1,5,0,piano cart crayola ,2,FED_20200130b_3T2,18,102,,
WPROD,wood_05s-tooth_09s-dandelion_14s.jpg,33,1,5,0,teeth wood dandelion ,2,FED_20200130b_3T2,19,109,,
WPROD,chair_09s-cocktail_01b-deer_06s.jpg,60,1,5,0,deer martini chair ,2,FED_20200130b_3T2,20,116,,
WPROD,ball_05s-trampoline_14s-pillow_13n-violin_12n.jpg,37,1,5,0,ball trampoline ciiolin pillow,2,FED_20200130b_3T2,21,123,,
SCOMP,A BOY IS PLAYING THE PIANO,116,1,5,0,0,2,FED_20200130b_3T2,22,132,,
SCOMP,A MAN IS PLAYING THE SAXOPHONE,85,1,5,0,0,2,FED_20200130b_3T2,23,135,,
SCOMP,A WOMAN IS CARRYING A BOWL OF FRUIT ON HER HEAD,70,1,5,0,0,2,FED_20200130b_3T2,24,138,,
SCOMP,A GIRL IS PLAYING THE VIOLIN,112,1,5,0,0,2,FED_20200130b_3T2,25,141,,
FIX,+,0,1,5,0,0,2,FED_20200130b_3T2,26,144,,
SCOMP,A LITTLE GIRL IS SMELLING A FLOWER,124,1,5,0,0,2,FED_20200130b_3T2,27,158,,
SCOMP,A MAN IS CHOPPING WOOD,94,1,5,0,0,2,FED_20200130b_3T2,28,161,,
SCOMP,A GROUP OF PEOPLE ARE PLAYING POKER,66,1,5,0,0,2,FED_20200130b_3T2,29,164,,
SCOMP,A MAN IS DIGGING A HOLE,67,1,5,0,0,2,FED_20200130b_3T2,30,167,,
WPROD,bird_12s-apple_10s-skateboard_07s.jpg,23,1,5,0,apple hummingbird board ,2,FED_20200130b_3T2,31,172,,
WPROD,canoe_12s-train_set_07s-dog_01b.jpg,18,1,5,0,canoe train collie ,2,FED_20200130b_3T2,32,179,,
WPROD,castle-2462133_960_720-paintbrush_10s-strawberry_04n.jpg,13,1,5,0,castle brush strawberry ,2,FED_20200130b_3T2,33,186,,
WPROD,horse_15s-telescope_03n-shopping_cart_07s.jpg,32,1,5,0,horse telescope cart ,2,FED_20200130b_3T2,34,193,,
EVSEM,5840187633.jpg,35,1,5,0,1,2,FED_20200130b_3T2,35,202,,
EVSEM,6681702227.jpg,33,1,5,0,1,2,FED_20200130b_3T2,36,205,,
EVSEM,4704668708.jpg,15,1,5,0,2,2,FED_20200130b_3T2,37,208,,
EVSEM,4696829163.jpg,54,1,5,0,2,2,FED_20200130b_3T2,38,211,,
SPROD,6110845331.jpg,24,1,5,0,drawing ,2,FED_20200130b_3T2,39,216,,
SPROD,35268263.jpg,60,1,5,0,sewing ,2,FED_20200130b_3T2,40,223,,
SPROD,4678843953.jpg,32,1,5,0,throwing azees,2,FED_20200130b_3T2,41,230,,
SPROD,29850055.jpg,50,1,5,0, playing in the sand ,2,FED_20200130b_3T2,42,237,,
NPROD,DWIKE    SKEAVE    SPLOME    TRALSE,62,1,5,0,dwike skeace splome tralse ,2,FED_20200130b_3T2,43,246,,
NPROD,THWUIP    WHULP    FROLVE    YERB,16,1,5,0,thwiop whulp frolve yerb ,2,FED_20200130b_3T2,44,253,,
NPROD,THWOQUE    SMESH    PHLIEVE    THWEMP,25,1,5,0,thwoque smesh phlieve thwemp ,2,FED_20200130b_3T2,45,260,,
NPROD,SWOILE    PRESH    DWESH    SKABE,35,1,5,0,swoile presh sdesh skabe ,2,FED_20200130b_3T2,46,267,,
WCOMP,ICE CREAM     JUMPROPE     HOUSE PLANT,98,1,5,0,0,2,FED_20200130b_3T2,47,276,,
WCOMP,PIPE     CANOE,120,1,5,0,0,2,FED_20200130b_3T2,48,279,,
WCOMP,ROLLERSKATES     EYE     MOUNTAIN,77,1,5,0,0,2,FED_20200130b_3T2,49,282,,
WCOMP,WINDOW     SHOWER     CHALKBOARD,104,1,5,0,0,2,FED_20200130b_3T2,50,285,,
FIX,+,0,1,5,0,0,2,FED_20200130b_3T2,51,288,,
FIX,+,0,2,6,0,0,6,FED_20191120c_3T2,1,0,,
NPROD,THRILT    PROIL    VODGE    SPLOOGE,48,2,6,0,][oqwer][rpo; vdge splooge,6,FED_20191120c_3T2,2,14,,
NPROD,KILCH    PHROOSE    WHALSE    THRARCE,1,2,6,0,kkilch phroose whalse thrarce,6,FED_20191120c_3T2,3,21,,
NPROD,PLISC    SNULT    THUTCH    GWERF,43,2,6,0,plisc snult thutch gwerf,6,FED_20191120c_3T2,4,28,,
NPROD,SPREETH    SHRADGE    PHRAW    PLONCH,4,2,6,0,sreeth shradge p[rhaw ploc,6,FED_20191120c_3T2,5,35,,
SPROD,4786057236.jpg,78,2,6,0,a man is playing according,6,FED_20191120c_3T2,6,44,,
SPROD,4597303045.jpg,73,2,6,0,a kid is vaping on the beach,6,FED_20191120c_3T2,7,51,,
SPROD,104669470.jpg,70,2,6,0,an woman is walking with a head ,6,FED_20191120c_3T2,8,58,,
SPROD,7348289414.jpg,108,2,6,0,kiddo eating an apple,6,FED_20191120c_3T2,9,65,,
EVSEM,5293561716.jpg,116,2,6,0,1,6,FED_20191120c_3T2,10,74,,
EVSEM,4322110026.jpg,101,2,6,0,1,6,FED_20191120c_3T2,11,77,,
EVSEM,6552971469.jpg,102,2,6,0,1,6,FED_20191120c_3T2,12,80,,
EVSEM,5283494184.jpg,107,2,6,0,2,6,FED_20191120c_3T2,13,83,,
WPROD,bubble_01b-hand_04s-canoe_12s.jpg,83,2,6,0,bubble hand canp,6,FED_20191120c_3T2,14,88,,
WPROD,leaves-1721983_960_720-pipe1_12s-column_12s.jpg,71,2,6,0,leaves pipe pillar,6,FED_20191120c_3T2,15,95,,
WPROD,bottle_06s-iron_04s-card_06s-hand_08s.jpg,65,2,6,0,bottle cards hands iron,6,FED_20191120c_3T2,16,102,,
WPROD,dishwasher_07s-hula_hoop_10s-snow_04s-newspapers-1412940_960_720.jpg,90,2,6,0,dish washer hula hoop snow newspaper,6,FED_20191120c_3T2,17,109,,
SCOMP,TWO GIRLS ARE WASHING A DOG,27,2,6,0,0,6,FED_20191120c_3T2,18,118,,
SCOMP,A WOMAN IS RIDING A HORSE,57,2,6,0,0,6,FED_20191120c_3T2,19,121,,
SCOMP,A WOMAN IS TALKING ON A CELL PHONE,31,2,6,0,0,6,FED_20191120c_3T2,20,124,,
SCOMP,A WOMAN IS BLOWING ON A DANDELION,44,2,6,0,0,6,FED_20191120c_3T2,21,127,,
WCOMP,SHOWER     MOUNTAIN     PILLOW,50,2,6,0,0,6,FED_20191120c_3T2,22,132,,
WCOMP,FRUIT     BOWLING BALL,63,2,6,0,0,6,FED_20191120c_3T2,23,135,,
WCOMP,CANOE     TOY TRAIN     DOG,18,2,6,0,0,6,FED_20191120c_3T2,24,138,,
WCOMP,CHALK     STAIRS     FISH,40,2,6,0,0,6,FED_20191120c_3T2,25,141,,
FIX,+,0,2,6,0,0,6,FED_20191120c_3T2,26,144,,
WCOMP,CASTLE     PAINTBRUSH     STRAWBERRY,13,2,6,0,0,6,FED_20191120c_3T2,27,158,,
WCOMP,PIPE     CHALK     DISHRACK     HAIRBRUSH,49,2,6,0,0,6,FED_20191120c_3T2,28,161,,
WCOMP,HAND     ROCK     TREADMILL     BROOM,15,2,6,0,0,6,FED_20191120c_3T2,29,164,,
WCOMP,BROOM     HURDLE     BEACH     CELLPHONE,35,2,6,0,0,6,FED_20191120c_3T2,30,167,,
SCOMP,A MAN IS MOWING THE LAWN,29,2,6,0,0,6,FED_20191120c_3T2,31,172,,
SCOMP,A WOMAN IS BLOWDRYING HER HAIR,40,2,6,0,0,6,FED_20191120c_3T2,32,175,,
SCOMP,A BARTENDER IS POURING A DRINK,21,2,6,0,0,6,FED_20191120c_3T2,33,178,,
SCOMP,A MAN IS PAINTING A COLUMN,48,2,6,0,0,6,FED_20191120c_3T2,34,181,,
WPROD,book_08s-wood_05s-ball_05s-saxophone_09s.jpg,94,2,6,0,a book awod,6,FED_20191120c_3T2,35,186,,
WPROD,shoe_09s-telescope_03n-noodle_12s-skateboard_07s.jpg,100,2,6,0,shoes telescope noodles skatebopard,6,FED_20191120c_3T2,36,193,,
WPROD,dandelion_14s-book_08s-snail_01b-gift_02s.jpg,88,2,6,0,dandelion book snail present0,6,FED_20191120c_3T2,37,200,,
WPROD,train_set_07s-accordion_12s-chicken2_07s.jpg,73,2,6,0,train acordion chicken,6,FED_20191120c_3T2,38,207,,
EVSEM,5505219003.jpg,128,2,6,0,1,6,FED_20191120c_3T2,39,216,,
EVSEM,281706216.jpg,67,2,6,0,2,6,FED_20191120c_3T2,40,219,,
