Condition,Item,ItemNum,List,Order,RT,Response,Likely_intended_production,Likely_Intended_Production_Split,Words_in_Intended_Production,Form_of_Intended_Production,Subject_is_Well_Formed,Verb_is_Well_Formed,Post-Verb_is_Well_Formed,Target,target_subj_noun,target_verb,target_obj_noun,target_other,Run,SubjID,TrialNumber,TrialOnset
SPROD,4436749692.jpg,68,2,Noun Phrase,0,ras9jfg a jew-0a-er,reading a newspaper,/reading/ a newspaper,2+,Subject-less Gerund Verb Phrase With Grammatically Well-Formed Object,NA,0,1,A man is reading the newspaper.,man,reading,newspaper,,6,FED_20200130c_3T2,18,86
SPROD,5925544950.jpg,125,2,12,0,gu9su,??,??,Unknown,Unknown,Unknown,Unknown,Unknown,A woman is fishing.,woman,fishing,,lake/river/pond,6,FED_20200130c_3T2,19,93
SPROD,8057415401.jpg,118,2,12,0,[a90kg vievoers,playing checkers,/playing /checkers,2+,Subject-less Gerund Verb Phrase With Grammatically Well-Formed Object,NA,0,1,Two men are playing checkers.,men,playing,checkers,,6,FED_20200130c_3T2,20,100
SPROD,5505219003.jpg,128,2,12,0,re0t0kg a [ec0te,writing a ??,/writing/ a ??,Unknown,Incomplete,NA,0,0,A man is writing on a chalkboard.,man,writing,equations,chalkboard,6,FED_20200130c_3T2,21,107
SPROD,4464176007.jpg,119,2,12,0,readf0kg a rj=er-=er,reading a newspaper,/reading/ a newspaper,2+,Subject-less Gerund Verb Phrase With Grammatically Well-Formed Object,NA,0,1,A man is sitting on a bench reading the newspaper.,man,sitting/reading,newspaper,bench,6,FED_20200130c_3T2,31,188
SPROD,5194027799.jpg,79,2,12,0,i-[g0k a f-s,holding?? a dog,/holding??/ a dog,Unknown,Incomplete,NA,0,1,A woman is holding a puppy.,woman,holding,puppy,,6,FED_20200130c_3T2,32,195
SPROD,4786057236.jpg,78,2,12,0,[a9-klg-ak=,??,??,Unknown,Incomplete,Incomplete,Incomplete,Incomplete,A man is playing the accordion.,man,playing,accordion,,6,FED_20200130c_3T2,33,202
SPROD,104669470.jpg,70,2,12,0,varr9kg a fr90t,carrying a fruit,/carrying/ a fruit,2+,Subject-less Gerund Verb Phrase With Grammatically Well-Formed Object,NA,0,1,A woman is carrying a bowl of fruit on her head.,woman,carrying,bowl,fruit/head,6,FED_20200130c_3T2,34,209
SPROD,4618092593.jpg,37,1,8,0,s;having their heads,shaving their heads,/shaving/ their heads,2+,Subject-less Gerund Verb Phrase With Grammatically Well-Formed Object,NA,0,1,Two men are shaving their heads.,men,shaving,heads,razor,2,FED_20200130d_3T2,2,14
SPROD,7028846053.jpg,42,1,8,0,eating noodles,eating noodles,/eating/ noodles,2+,Subject-less Gerund Verb Phrase With Grammatically Well-Formed Object,NA,0,1,A woman is eating noodles (from a bowl).,woman,eating,noodles,bowl/chopsticks,2,FED_20200130d_3T2,3,21
SPROD,3665441862.jpg,43,1,8,0,climbing a fence,climbing a fence,/climbing/ a fence,2+,Subject-less Gerund Verb Phrase With Grammatically Well-Formed Object,NA,0,1,A young girl is climbing a fence.,girl,climbing,fence,,2,FED_20200130d_3T2,4,28
SPROD,6110845331.jpg,24,1,8,0,drawing something,drawing something,/drawing/ something,2+,Subject-less Gerund Verb Phrase With Grammatically Well-Formed Object,NA,0,1,A girl is coloring with crayons (on the floor?).,girl,coloring,,crayons/floor,2,FED_20200130d_3T2,5,35
SPROD,5584269779.jpg,57,1,8,0,riding a hourse,riding a horse,/riding/ a horse,2+,Subject-less Gerund Verb Phrase With Grammatically Well-Formed Object,NA,0,1,A woman is riding a horse.,woman,riding,horse,,2,FED_20200130d_3T2,47,260
SPROD,6354735653.jpg,62,1,8,0,climbing a rock,climbing a rock,/climbing/ a rock,2+,Subject-less Gerund Verb Phrase With Grammatically Well-Formed Object,NA,0,1,A man is rock climbing.,man,rock climbing,,cliff/rock,2,FED_20200130d_3T2,48,267
SPROD,7995263133.jpg,64,1,8,0,sleeping on a striped pillow,sleeping on a striped pillow,/sleeping/ on a striped pillow,2+,Subject-less Gerund Verb Phrase With Grammatically Well-Formed Object,NA,0,1,A young boy is sleeping (on a striped pillow).,boy,sleeping,,pillow,2,FED_20200130d_3T2,49,274
SPROD,5840187633.jpg,35,1,8,0,waqlwalihng on a treadmill,walking on a treadmill,/walking /on a treadmill,2+,Subject-less Gerund Verb Phrase With Grammatically Well-Formed Object,NA,0,1,A little girl is walking on a treadmill.,girl,walking,,treadmill,2,FED_20200130d_3T2,50,281
SPROD,4896173039.jpg,22,1,7,0,reading,reading,reading,1,Gerund,NA,NA,NA,A woman is reading a book.,woman,reading,book,outside,1,FED_20200130d_3T2,22,116
SPROD,5241718422.jpg,19,1,7,0,womanrunning ona treadmill,woman running on a treadmill,woman /running /on a treadmill,2+,"Subject and Gerund ""Newspaper Syntax""",0,0,1,A man is running on a treadmill.,man,running,,treadmill,1,FED_20200130d_3T2,23,123
SPROD,807129.jpg,47,1,7,0,playikngthe flute,playing the flute,/playing/ the flute,2+,Subject-less Gerund Verb Phrase With Grammatically Well-Formed Object,NA,0,1,A man is playing the flute.,man,playing/sitting,flute,outside,1,FED_20200130d_3T2,24,130
SPROD,7380263314.jpg,1,1,7,0,digging in the sand,digging in the sand,/digging/ in the sand,2+,Subject-less Gerund Verb Phrase With Grammatically Well-Formed Object,NA,0,1,A girl is digging sand at the beach.,girl,digging,sand,beach/shovel,1,FED_20200130d_3T2,25,137
SPROD,4607606901.jpg,3,1,7,0,pettiga goat,petting a goat,/petting/ a goat,2+,Subject-less Gerund Verb Phrase With Grammatically Well-Formed Object,NA,0,1,A (young) girl is petting a deer.,girl,petting,deer,,1,FED_20200130d_3T2,27,158
SPROD,5543900069.jpg,40,1,7,0,blow driing hair,blow drying hair,/blow drying/ hair,2+,"Subject-less Gerund Phrase ""Newspaper Headline Syntax"" Object",NA,0,1,A woman is blowdrying her hair.,woman,blowdrying,hair,,1,FED_20200130d_3T2,28,165
SPROD,33256003.jpg,36,1,7,0,lipstick,lipstick,lipstick,1,Noun,NA,NA,0,A woman is applying lipstick.,woman,applying,lipstick,,1,FED_20200130d_3T2,29,172
SPROD,6237339784.jpg,30,1,7,0,climbing a tree,climbing a tree,/climbing/ a tree,2+,Subject-less Gerund Verb Phrase With Grammatically Well-Formed Object,NA,0,1,A boy/kid/child is sitting in a tree.,boy,sitting,,tree/branch,1,FED_20200130d_3T2,30,179
SPROD,5565536413.jpg,126,2,5,0,Unintelligible,unintelligible,unintelligible,Unknown,Unknown,Unknown,Unknown,Unknown,A man is painting a mural.,man,painting,mural,door,2,FED_20191204a_3T2,10,58
SPROD,4322110026.jpg,101,2,5,0,Unintelligible,unintelligible,unintelligible,Unknown,Unknown,Unknown,Unknown,Unknown,A man is shaving his face.,man,shaving,face,,2,FED_20191204a_3T2,11,65
SPROD,3673032164.jpg,117,2,5,0,Unintelligible,unintelligible,unintelligible,Unknown,Unknown,Unknown,Unknown,Unknown,Two girls are arm-wrestling.,girls,arm-wrestling,,,2,FED_20191204a_3T2,12,72
SPROD,4986581949.jpg,81,2,5,0,Unintelligible,unintelligible,unintelligible,Unknown,Unknown,Unknown,Unknown,Unknown,A woman is sitting on the subway.,woman,sitting,subway,,2,FED_20191204a_3T2,13,79
SPROD,6552971469.jpg,102,2,5,0,Unintelligible,unintelligible,unintelligible,Unknown,Unknown,Unknown,Unknown,Unknown,A choir is singing.,choir,singing,,,2,FED_20191204a_3T2,39,216
SPROD,3660826540.jpg,99,2,5,0,Unintelligible,unintelligible,unintelligible,Unknown,Unknown,Unknown,Unknown,Unknown,A little boy is pointing at something.,boy,pointing,,something,2,FED_20191204a_3T2,40,223
SPROD,5334523454.jpg,120,2,5,0,Unintelligible,unintelligible,unintelligible,Unknown,Unknown,Unknown,Unknown,Unknown,A boy is holding a bird in his hands.,boy,holding,bird,hands,2,FED_20191204a_3T2,41,230
SPROD,4548039526.jpg,69,2,5,0,Unintelligible,unintelligible,unintelligible,Unknown,Unknown,Unknown,Unknown,Unknown,Two (older) men are walking on the beach.,men,walking,,beach/water,2,FED_20191204a_3T2,42,237
SPROD,3660826540.jpg,99,2,3,0,Unintelligible,unintelligible,unintelligible,Unknown,Unknown,Unknown,Unknown,Unknown,A little boy is pointing at something.,boy,pointing,,something,3,FED_20200213b_3T2,18,102
SPROD,4390269250.jpg,104,2,3,0,Unintelligible,unintelligible,unintelligible,Unknown,Unknown,Unknown,Unknown,Unknown,A (little) girl is eating a strawberry.,girl,eating,strawberry,,3,FED_20200213b_3T2,19,109
SPROD,2047030603.jpg,82,2,3,0,Unintelligible,unintelligible,unintelligible,Unknown,Unknown,Unknown,Unknown,Unknown,A man is pushing a cart full of grocery bags.,man,pushing,cart,bags,3,FED_20200213b_3T2,20,116
SPROD,4555514125.jpg,86,2,3,0,Unintelligible,unintelligible,unintelligible,Unknown,Unknown,Unknown,Unknown,Unknown,A man is pushing a couch down a street/sidewalk.,man,pushing,couch,sidewalk/street,3,FED_20200213b_3T2,21,123
SPROD,41105465.jpg,80,2,3,0,Unintelligible,unintelligible,unintelligible,Unknown,Unknown,Unknown,Unknown,Unknown,A man is meditating in a park.,man,meditating,,park,3,FED_20200213b_3T2,31,172
SPROD,3652094744.jpg,65,2,3,0,Unintelligible,unintelligible,unintelligible,Unknown,Unknown,Unknown,Unknown,Unknown,A (little) boy is watering a plant.,boy,watering,plant,,3,FED_20200213b_3T2,32,179
SPROD,8189395281.jpg,111,2,3,0,Unintelligible,unintelligible,unintelligible,Unknown,Unknown,Unknown,Unknown,Unknown,A woman is roller skating.,woman,roller skating,,indoors,3,FED_20200213b_3T2,33,186
SPROD,5505219003.jpg,128,2,3,0,Unintelligible,unintelligible,unintelligible,Unknown,Unknown,Unknown,Unknown,Unknown,A man is writing on a chalkboard.,man,writing,equations,chalkboard,3,FED_20200213b_3T2,34,193
SPROD,41999070.jpg,46,1,7,0,DOGS ARE PLAYING IN WATER,dogs are playing in water,dogs /are playing/ in water,2+,Subject and Tensed Gerund Verb Well Formed,1,1,1,A group of dogs are playing in a fountain/pool.,group,playing,,fountain/pool/water,6,FED_20200205c_3T2,22,116
SPROD,6681702227.jpg,33,1,7,0,A WOMAN IS GIVING SOMEONE A HAIRCUT,a woman is giving someone a haircut,a woman /is giving/ someone a haircut,2+,Subject and Tensed Gerund Verb Well Formed,1,1,1,A woman is cutting a man's hair.,woman,cutting,hair,man/haircut,6,FED_20200205c_3T2,23,123
SPROD,5220880759.jpg,16,1,7,0,A MAN IS TAKING A SHOWER,a man is taking a shower,a man /is taking/ a shower,2+,Subject and Tensed Gerund Verb Well Formed,1,1,1,A man is taking a shower.,man,taking,shower,,6,FED_20200205c_3T2,24,130
SPROD,6354735653.jpg,62,1,7,0,A MAN IS ROCK CLIMBING,a man is rock climbing,a man /is rock climbing/,2+,Subject and Tensed Gerund Verb Well Formed,1,1,NA,A man is rock climbing.,man,rock climbing,,cliff/rock,6,FED_20200205c_3T2,25,137
SPROD,6915574150.jpg,6,1,7,0,A BABY IS HOLDING A TOOTHBRUSH,a baby is holding a toothbrush,a baby /is holding/ a toothbrush,2+,Subject and Tensed Gerund Verb Well Formed,1,1,1,A toddler is holding a toothbrush.,toddler,holding,toothbrush,,6,FED_20200205c_3T2,27,158
SPROD,4855357158.jpg,23,1,7,0,A MAN IS HOLDING A CANOE,a man is holding a canoe,a man /is holding/ a canoe,2+,Subject and Tensed Gerund Verb Well Formed,1,1,1,A man is carrying a canoe.,man,carrying,canoe,,6,FED_20200205c_3T2,28,165
SPROD,1414454789.jpg,61,1,7,0,CHEFS ARE IN THE KITCHEN,chefs are in the kitchen,chefs /are/ in the kitchen,2+,Subject and Tensed Gerund Verb Well Formed,1,1,1,Chefs are preparing food in a kitchen.,chefs,preparing,food,kitchen,6,FED_20200205c_3T2,29,172
SPROD,5194023863.jpg,28,1,7,0,A GILR IS HOLDING AN APPLE,a girl is holding an apple,a girl /is holding/ an apple,2+,Subject and Tensed Gerund Verb Well Formed,1,1,1,A (little) girl is holding a snail.,girl,holding,snail,,6,FED_20200205c_3T2,30,179
SPROD,6721214117.jpg,41,1,10,0,A MAN IS BOWLING,a man is bowling,a man /is bowling/,2+,Subject and Tensed Gerund Verb Well Formed,1,1,NA,A man is bowling.,man,bowling,,,3,FED_20200205c_3T2,10,58
SPROD,4705826062.jpg,49,1,10,0,A MAN IS EATING AN ICE CREAM CONE,a man is eating an ice cream cone,a man /is eating/ an ice cream cone,2+,Subject and Tensed Gerund Verb Well Formed,1,1,1,A man is eating an ice cream cone.,man,eating,ice cream cone,,3,FED_20200205c_3T2,11,65
SPROD,3672940355.jpg,12,1,10,0,A GIRL IS KICKING A BALL,a girl is kicking a ball,a girl /is kicking/ a ball,2+,Subject and Tensed Gerund Verb Well Formed,1,1,1,A young girl is kicking a ball.,girl,kicking,ball,outside/yard/grass,3,FED_20200205c_3T2,12,72
SPROD,126594141.jpg,26,1,10,0,A N THLETE IS TYPING HER SHOES,an athlete is tying her shoes,an athlete/ is tying/ her shoes,2+,Subject and Tensed Gerund Verb Well Formed,1,1,1,A woman is tying her shoe (on a soccer field).,woman,tying,shoe,field,3,FED_20200205c_3T2,13,79
SPROD,5241718422.jpg,19,1,10,0,A MAN IS RUNNIGN ON A TREADMILL,a man is running on a treadmill,a man/ is running/ on a treadmill,2+,Subject and Tensed Gerund Verb Well Formed,1,1,1,A man is running on a treadmill.,man,running,,treadmill,3,FED_20200205c_3T2,39,216
SPROD,4621100791.jpg,5,1,10,0,A MAN IS NAPPING ON A BENCH OUTSIDE,a man is napping on a bench outside,a man /is napping/ on a bench outside,2+,Subject and Tensed Gerund Verb Well Formed,1,1,1,A man is sleeping on a chair/bench (outside).,man,sleeping,bench,outside,3,FED_20200205c_3T2,40,223
SPROD,6845394024.jpg,7,1,10,0,A BOY IS BRUSHING HIS TEETH,a boy is brushing his teeth,a boy /is brushing/ his teeth,2+,Subject and Tensed Gerund Verb Well Formed,1,1,1,A (young) boy is brushing his teeth.,boy,brushing,teeth,,3,FED_20200205c_3T2,41,230
SPROD,4696829163.jpg,54,1,10,0,A BOY CAUGHT A FISH,a boy caught a fish,a boy /caught/ a fish,2+,Subject and Non-Gerund Verb Well Formed,1,1,1,A boy is holding up a fish (he caught).,boy,holding,fish,caught,3,FED_20200205c_3T2,42,237
SPROD,4618092593.jpg,37,1,8,0,MEN ARE SHAVING,men are shaving,men /are shaving/,2+,Subject and Tensed Gerund Verb Well Formed,1,1,NA,Two men are shaving their heads.,men,shaving,heads,razor,5,FED_20200205c_3T2,2,14
SPROD,807129.jpg,47,1,8,0,A MAN IS PLAYING A FLUTE,a man is playing a flute,a man /is playing/ a flute,2+,Subject and Tensed Gerund Verb Well Formed,1,1,1,A man is playing the flute.,man,playing/sitting,flute,outside,5,FED_20200205c_3T2,3,21
SPROD,4688958106.jpg,8,1,8,0,SURGEONS ARE UNDERGOEING SURGERY,surgeons are undergoing surgery,surgeons /are undergoing/ surgery,2+,Subject and Tensed Gerund Verb Well Formed,1,1,1,Two doctors/surgeons are operating/performing surgery.,doctors/surgeons,operating/performing,surgery,,5,FED_20200205c_3T2,4,28
SPROD,6939434967.jpg,55,1,8,0,GIRLS ARE PLAYING JUMPROPE,girls are playing jump rope,girls /are playing/ jump rope,2+,Subject and Tensed Gerund Verb Well Formed,1,1,1,Three girls are playing jump rope.,girls,playing,jump rope,,5,FED_20200205c_3T2,5,35
SPROD,6225280494.jpg,9,1,8,0,A MAN IS JUMPING OVER A HURDLE,a man is jumping over a hurdle,a man /is jumping/ over a hurdle,2+,Subject and Tensed Gerund Verb Well Formed,1,1,1,A man is jumping over a hurdle.,man,jumping,,hurdle,5,FED_20200205c_3T2,47,260
SPROD,6237339784.jpg,30,1,8,0,A BOY IS ON A TREE,a boy is on a tree,a boy /is/ on a tree,2+,Subject and Non-Gerund Verb Well Formed,1,1,1,A boy/kid/child is sitting in a tree.,boy,sitting,,tree/branch,5,FED_20200205c_3T2,48,267
SPROD,3819214047.jpg,59,1,8,0,A MAN IS ON A SKATEBOARD,a man is on a skateboard,a man /is/ on a skateboard,2+,Subject and Non-Gerund Verb Well Formed,1,1,1,A boy/man is sitting on his skateboard.,man,sitting,,skateboard,5,FED_20200205c_3T2,49,274
SPROD,4121133646.jpg,45,1,8,0,A BOY IS EXAMINING A ROCK,a boy is examining a rock,a boy /is examining/ a rock,2+,Subject and Tensed Gerund Verb Well Formed,1,1,1,A boy is using a magnifying glass to look at a rock.,boy,using,magnifying glass,rock,5,FED_20200205c_3T2,50,281
SPROD,3660826540.jpg,99,2,9,0,098ht8ng,??,??,Unknown,Incomplete,Incomplete,Incomplete,Incomplete,A little boy is pointing at something.,boy,pointing,,something,3,FED_20191120d_3T2,6,28
SPROD,4390269250.jpg,104,2,9,0,eating,eating,eating,1,Gerund,NA,NA,NA,A (little) girl is eating a strawberry.,girl,eating,strawberry,,3,FED_20191120d_3T2,7,35
SPROD,2047030603.jpg,82,2,9,0,shopping for food,shopping for food,/shopping/ for food,2+,Subject-less Gerund Verb Phrase With Grammatically Well-Formed Object,NA,0,1,A man is pushing a cart full of grocery bags.,man,pushing,cart,bags,3,FED_20191120d_3T2,8,42
SPROD,4555514125.jpg,86,2,9,0,pushing a couch,pushing a couch,/pushing/ a couch,2+,Subject-less Gerund Verb Phrase With Grammatically Well-Formed Object,NA,0,1,A man is pushing a couch down a street/sidewalk.,man,pushing,couch,sidewalk/street,3,FED_20191120d_3T2,9,49
SPROD,41105465.jpg,80,2,9,0,meditation,meditation,meditation,1,Noun,NA,NA,NA,A man is meditating in a park.,man,meditating,,park,3,FED_20191120d_3T2,43,246
SPROD,3652094744.jpg,65,2,9,0,watering tree,watering tree,/watering/ tree,2+,"Subject-less Gerund Phrase ""Newspaper Headline Syntax"" Object",NA,0,0,A (little) boy is watering a plant.,boy,watering,plant,,3,FED_20191120d_3T2,44,253
SPROD,8189395281.jpg,111,2,9,0,rollerblading,rollerblading,rollerblading,1,Gerund,NA,0,NA,A woman is roller skating.,woman,roller skating,,indoors,3,FED_20191120d_3T2,45,260
SPROD,5505219003.jpg,128,2,9,0,writing on board,writing on board,/writing/ on board,2+,"Subject-less Gerund Phrase ""Newspaper Headline Syntax"" Object",NA,0,0,A man is writing on a chalkboard.,man,writing,equations,chalkboard,3,FED_20191120d_3T2,46,267
SPROD,6915574150.jpg,6,1,1,0,GJRK BILFINGH YIIYHBTUDH,girl holding toothbrush,girl /holding/ toothbrush,2+,"Subject and Gerund ""Newspaper Syntax""",0,0,0,A toddler is holding a toothbrush.,toddler,holding,toothbrush,,6,FED_20200205b_3T2,2,14
SPROD,5220880759.jpg,16,1,1,0,"M,SN IN YTHR DHOERT",man in the shower,man //in the shower,2+,Noun Phrase,0,NA,1,A man is taking a shower.,man,taking,shower,,6,FED_20200205b_3T2,3,21
SPROD,35268263.jpg,60,1,1,0,WOMAN AT TABLE SEWING,woman at table sewing,woman/ at table /sewing,2+,"Subject and Gerund ""Newspaper Syntax""",0,0,0,A woman is sewing (on her sewing machine).,woman,sewing/using,sewing machine,,6,FED_20200205b_3T2,4,28
SPROD,6303184938.jpg,58,1,1,0,MAN LOKING IN MICEISCIOE\,man looking in microscope,man /looking/ in microscope,2+,"Subject and Gerund ""Newspaper Syntax""",0,0,0,A man is looking through a microscope.,man,looking,microscope,,6,FED_20200205b_3T2,5,35
SPROD,3819214047.jpg,59,1,1,0,MSN DIYYINHJ ON FKDYRTBODYG,man sitting on skateboard,man /sitting/ on skateboard,2+,"Subject and Gerund ""Newspaper Syntax""",0,0,0,A boy/man is sitting on his skateboard.,man,sitting,,skateboard,6,FED_20200205b_3T2,47,260
SPROD,5584269779.jpg,57,1,1,0,EOSN TIFINNH HNOTDR,woman riding horse,woman /riding/ horse,2+,"Subject and Gerund ""Newspaper Syntax""",0,0,0,A woman is riding a horse.,woman,riding,horse,,6,FED_20200205b_3T2,48,267
SPROD,3665441862.jpg,43,1,1,0,"TOR; V;O,NOMH GRMBVR",girl climbing fence,girl /climbing/ fence,2+,"Subject and Gerund ""Newspaper Syntax""",0,0,0,A young girl is climbing a fence.,girl,climbing,fence,,6,FED_20200205b_3T2,49,274
SPROD,33256003.jpg,36,1,1,0,"WP,SM [IYYOMH PM ;O[FYOBVL",woman putting on lipstick,woman /putting on/ lipstick,2+,"Subject and Gerund ""Newspaper Syntax""",0,0,1,A woman is applying lipstick.,woman,applying,lipstick,,6,FED_20200205b_3T2,50,281
SPROD,4618092593.jpg,37,1,4,0,men shavin heads,men shaving heads,men /shaving/ heads,2+,"Subject and Gerund ""Newspaper Syntax""",0,0,0,Two men are shaving their heads.,men,shaving,heads,razor,3,FED_20200130b_3T2,14,72
SPROD,6915574150.jpg,6,1,4,0,girl with tooghbrush,girl with toothbrush,girl//with toothbrush,2+,Noun Phrase,0,NA,0,A toddler is holding a toothbrush.,toddler,holding,toothbrush,,3,FED_20200130b_3T2,15,79
SPROD,3818278154.jpg,39,1,4,0,meditating on beach,meditating on beach,/meditating/ on beach,2+,"Subject-less Gerund Phrase ""Newspaper Headline Syntax"" Object",NA,0,0,A group of people are doing yoga on a beach.,group,doing,yoga,beach,3,FED_20200130b_3T2,16,86
SPROD,7819772858.jpg,52,1,4,0,surfing,surfing,surfing,1,Gerund,NA,NA,NA,A man is surfing.,man,surfing,,wave/surfboard,3,FED_20200130b_3T2,17,93
SPROD,4772785237.jpg,25,1,4,0,sweeping sidewalk,sweeping sidewalk,/sweeping/ sidewalk,2+,"Subject-less Gerund Phrase ""Newspaper Headline Syntax"" Object",NA,0,0,A man is sweeping the sidewalk.,man,sweeping,sidewalk,,3,FED_20200130b_3T2,35,202
SPROD,5220880759.jpg,16,1,4,0,taking a shower,taking a shower,/taking/ a shower,2+,Subject-less Gerund Verb Phrase With Grammatically Well-Formed Object,NA,0,1,A man is taking a shower.,man,taking,shower,,3,FED_20200130b_3T2,36,209
SPROD,3677329561.jpg,27,1,4,0,washing a doggo,washing a doggo,/washing/ a doggo,2+,Subject-less Gerund Verb Phrase With Grammatically Well-Formed Object,NA,0,1,Two girls are washing a dog.,girls,washing,dog,outside,3,FED_20200130b_3T2,37,216
SPROD,5241718422.jpg,19,1,4,0,runnign on a treadmill,running on a treadmill,/running/ on a treadmill,2+,Subject-less Gerund Verb Phrase With Grammatically Well-Formed Object,NA,0,1,A man is running on a treadmill.,man,running,,treadmill,3,FED_20200130b_3T2,38,223
SPROD,5669914204.jpg,13,1,2,0,GIRL WITH NOUY,girl with boy,girl //with boy,2+,Noun Phrase,0,NA,0,A (young) boy is looking through a telescope.,boy,looking,,telescope,2,FED_20191204c_3T2,22,116
SPROD,5840187633.jpg,35,1,2,0,SLOWWINGRUNNER,slow runner,slow runner,2+,,NA,NA,NA,A little girl is walking on a treadmill.,girl,walking,,treadmill,2,FED_20191204c_3T2,23,123
SPROD,7995263133.jpg,64,1,2,0,"FIUM,PIOGN",??,??,?,?,?,?,?,A young boy is sleeping (on a striped pillow).,boy,sleeping,,pillow,2,FED_20191204c_3T2,24,130
SPROD,6225280494.jpg,9,1,2,0,0,0,0,?,?,?,?,?,A man is jumping over a hurdle.,man,jumping,,hurdle,2,FED_20191204c_3T2,25,137
SPROD,6354735653.jpg,62,1,2,0,NOLIMBNIGN,climbing,climbing,1,Gerund,NA,NA,NA,A man is rock climbing.,man,rock climbing,,cliff/rock,2,FED_20191204c_3T2,27,158
SPROD,4789495327.jpg,31,1,2,0,"WOM,AN NO PHOIONG",woman on phone,woman/ on phone,2+,Noun Phrase,0,NA,0,A woman is talking on a cell phone.,woman,talking,,cell phone,2,FED_20191204c_3T2,28,165
SPROD,3672940355.jpg,12,1,2,0,KICKING NALL,kicking ball,/kicking/ ball,2+,"Subject-less Gerund Phrase ""Newspaper Headline Syntax"" Object",NA,0,0,A young girl is kicking a ball.,girl,kicking,ball,outside/yard/grass,2,FED_20191204c_3T2,29,172
SPROD,4607606901.jpg,3,1,2,0,GIRLWITH DEER,girl with deer,girl //with deer,2+,Noun Phrase,0,NA,0,A (young) girl is petting a deer.,girl,petting,deer,,2,FED_20191204c_3T2,30,179
SPROD,29850055.jpg,50,1,11,0,a little boy is playing in the sand,a little boy is playing in the sand,a little boy /is playing/ in the sand,2+,Subject and Tensed Gerund Verb Well Formed,1,1,1,A (little/young) boy is playing in the sand.,boy,playing,,sand,5,FED_20200130d_3T2,14,72
SPROD,6237869128.jpg,63,1,11,0,a woman is pouytting on a boot,a woman is putting on a boot,a woman /is putting/ on a boot,2+,Subject and Tensed Gerund Verb Well Formed,1,1,1,A woman is putting on a boot.,woman,putting on,boot,floor,5,FED_20200130d_3T2,15,79
SPROD,3677329561.jpg,27,1,11,0,two girls are washing the dog,two girls are washing the dog,two girls /are washing/ the dog,2+,Subject and Tensed Gerund Verb Well Formed,1,1,1,Two girls are washing a dog.,girls,washing,dog,outside,5,FED_20200130d_3T2,16,86
SPROD,4705826062.jpg,49,1,11,0,a man is eating ice cream,a man is eating ice cream,a man /is eating/ ice cream,2+,Subject and Tensed Gerund Verb Well Formed,1,1,1,A man is eating an ice cream cone.,man,eating,ice cream cone,,5,FED_20200130d_3T2,17,93
SPROD,4704668708.jpg,15,1,11,0,a boy is opening a present,a boy is opening a present,a boy /is opening/ a present,,Subject and Tensed Gerund Verb Well Formed,1,1,1,A little boy is opening a gift/present.,boy,opening,gift/present,,5,FED_20200130d_3T2,35,202
SPROD,4585839343.jpg,44,1,11,0,a girl is picking flowers,a girl is picking flowers,a girl /is picking/ flowers,2+,Subject and Tensed Gerund Verb Well Formed,1,1,1,A woman is blowing on a dandelion.,woman,blowing,dandelion/flower,field,5,FED_20200130d_3T2,36,209
SPROD,7819772858.jpg,52,1,11,0,a man is surfing,a man is surfing,a man /is surfing/,2+,Subject and Tensed Gerund Verb Well Formed,1,1,NA,A man is surfing.,man,surfing,,wave/surfboard,5,FED_20200130d_3T2,37,216
SPROD,126594141.jpg,26,1,11,0,a girl is tying her shoe,a girl is tying her shoe,a girl /is tying/ her shoe,2+,Subject and Tensed Gerund Verb Well Formed,1,1,1,A woman is tying her shoe (on a soccer field).,woman,tying,shoe,field,5,FED_20200130d_3T2,38,223
SPROD,3800306463.jpg,77,2,7,0,holding cucumbers,holding cucumbers,/holding/ cucumbers,2+,Subject-less Gerund Verb Phrase With Grammatically Well-Formed Object,NA,0,1,A (little) boy is holding two large cucumbers.,boy,holding,cucumbers,,5,FED_20191120d_3T2,22,116
SPROD,7742281954.jpg,85,2,7,0,playing trumpet,playing trumpet,/playing/ trumpet,2+,"Subject-less Gerund Phrase ""Newspaper Headline Syntax"" Object",NA,0,0,A man is playing the saxophone.,man,playing,saxophone,outside/garden,5,FED_20191120d_3T2,23,123
SPROD,5925544950.jpg,125,2,7,0,fishing,fishing,fishing,1,Gerund,NA,0,NA,A woman is fishing.,woman,fishing,,lake/river/pond,5,FED_20191120d_3T2,24,130
SPROD,3808935147.jpg,106,2,7,0,jumping on trampoline,jumping on trampoline,/jumping/ on trampoline,2+,"Subject-less Gerund Phrase ""Newspaper Headline Syntax"" Object",NA,0,0,Two boys are jumping on a trampoline.,boys,jumping,,trampoline,5,FED_20191120d_3T2,25,137
SPROD,7119846943.jpg,75,2,7,0,hoola hoop contest,hoola hoop contest,hoola hoop contest,2+,Noun Phrase,NA,NA,NA,A girl is hula-hooping.,girl,hula-hooping,,,5,FED_20191120d_3T2,27,158
SPROD,4858197102.jpg,103,2,7,0,crying baby,crying baby,crying/ baby,2+,"Subject and Gerund ""Newspaper Syntax""",0,0,NA,A man is holding a (newborn) baby.,man,holding,baby,,5,FED_20191120d_3T2,28,165
SPROD,6338733.jpg,84,2,7,0,holding a sign,holding a sign,/holding/ a sign,2+,Subject-less Gerund Verb Phrase With Grammatically Well-Formed Object,NA,0,1,A woman is holding a stop sign.,woman,holding,stop sign,,5,FED_20191120d_3T2,29,172
SPROD,5411504795.jpg,124,2,7,0,sniffing flower,sniffing flower,/sniffing/ flower,2+,"Subject-less Gerund Phrase ""Newspaper Headline Syntax"" Object",NA,0,0,A little girl is smelling a flower.,girl,smelling,flower,,5,FED_20191120d_3T2,30,179
SPROD,7380263314.jpg,1,1,9,0,firl platimg,girl playing,girl /playing,2+,"Subject and Gerund ""Newspaper Syntax""",0,0,NA,A girl is digging sand at the beach.,girl,digging,sand,beach/shovel,4,FED_20200130a_3T2,6,28
SPROD,6110845331.jpg,24,1,9,0,"giorl; paom,tio,h",girl painting,girl /painting,2+,"Subject and Gerund ""Newspaper Syntax""",0,0,NA,A girl is coloring with crayons (on the floor?).,girl,coloring,,crayons/floor,4,FED_20200130a_3T2,7,35
SPROD,4896173039.jpg,22,1,9,0,lsfdu trsfimg,woman reading,woman /reading,2+,"Subject and Gerund ""Newspaper Syntax""",0,0,NA,A woman is reading a book.,woman,reading,book,outside,4,FED_20200130a_3T2,8,42
SPROD,7028846053.jpg,42,1,9,0,"l;sdfu rstio,g",woman eating,woman /eating,2+,"Subject and Gerund ""Newspaper Syntax""",0,0,NA,A woman is eating noodles (from a bowl).,woman,eating,noodles,bowl/chopsticks,4,FED_20200130a_3T2,9,49
SPROD,6225280494.jpg,9,1,9,0,",am ju,oimh",man jumping,man /jumping,2+,"Subject and Gerund ""Newspaper Syntax""",0,0,NA,A man is jumping over a hurdle.,man,jumping,,hurdle,4,FED_20200130a_3T2,43,246
SPROD,6915574150.jpg,6,1,9,0,vjiolf bridjimh,??,??,Unknown,Incomplete,Incomplete,Incomplete,Incomplete,A toddler is holding a toothbrush.,toddler,holding,toothbrush,,4,FED_20200130a_3T2,44,253
SPROD,807129.jpg,47,1,9,0,",an fgikhy",man flute,man// flute,2+,Noun Phrase,0,NA,0,A man is playing the flute.,man,playing/sitting,flute,outside,4,FED_20200130a_3T2,45,260
SPROD,4607606901.jpg,3,1,9,0,git paeeimg voe,girl petting doe,girl /petting/ doe,2+,"Subject and Gerund ""Newspaper Syntax""",0,0,0,A (young) girl is petting a deer.,girl,petting,deer,,4,FED_20200130a_3T2,46,267
SPROD,3819214047.jpg,59,1,6,0,a kid is sitting on a skateboard,a kid is sitting on a skateboard,a kid /is sitting /on a skateboard,2+,Subject and Tensed Gerund Verb Well Formed,1,1,1,A boy/man is sitting on his skateboard.,man,sitting,,skateboard,6,FED_20200205a_3T2,6,44
SPROD,5534793306.jpg,48,1,6,0,a man is painting a pillar of building exterior,a man is painting a pillar of building exterior,a man /is painting/ a pillar of building exterior,2+,"Subject and Tensed Gerund Verb ""Newspaper Syntax""",1,1,0,A man is painting a column (on a ladder).,man,painting,column,ladder,6,FED_20200205a_3T2,7,51
SPROD,5241718422.jpg,19,1,6,0,a man is runnign on treadmill,a man is running on treadmill,a man /is running/ on treadmill,2+,Subject and Tensed Gerund Verb Well Formed,1,1,1,A man is running on a treadmill.,man,running,,treadmill,6,FED_20200205a_3T2,8,58
SPROD,5669914204.jpg,13,1,6,0,a kid is looking through a telescope,a kid is looking through a telescope,a kid /is looking/ through a telescope,2+,Subject and Tensed Gerund Verb Well Formed,1,1,1,A (young) boy is looking through a telescope.,boy,looking,,telescope,6,FED_20200205a_3T2,9,65
SPROD,126594141.jpg,26,1,6,0,a girl is tieing shoe on soccor field,a girl is tying shoe on soccer field,a girl /is tying/ shoe on soccer field,2+,"Subject and Tensed Gerund Verb ""Newspaper Syntax""",1,1,0,A woman is tying her shoe (on a soccer field).,woman,tying,shoe,field,6,FED_20200205a_3T2,43,230
SPROD,4896173039.jpg,22,1,6,0,a woman is reading a book,a woman is reading a book,a woman/ is reading/ a book,2+,Subject and Tensed Gerund Verb Well Formed,1,1,1,A woman is reading a book.,woman,reading,book,outside,6,FED_20200205a_3T2,44,237
SPROD,4607606901.jpg,3,1,6,0,a girl is petting a deer?\,a girl is petting a deer,a girl /is petting/ a deer,2+,Subject and Tensed Gerund Verb Well Formed,1,1,1,A (young) girl is petting a deer.,girl,petting,deer,,6,FED_20200205a_3T2,45,244
SPROD,4050265867.jpg,18,1,6,0,a baby is yawning,a baby is yawning,a baby /is yawning/,2+,Subject and Tensed Gerund Verb Well Formed,1,1,1,A baby is yawning.,baby,yawning,,,6,FED_20200205a_3T2,46,251
SPROD,6338733.jpg,84,2,4,0,f nfi pk,??,??,Unknown,Incomplete,Incomplete,Incomplete,Incomplete,A woman is holding a stop sign.,woman,holding,stop sign,,3,FED_20191204a_3T2,14,72
SPROD,4715971264.jpg,88,2,4,0,bgi p l,??,??,Unknown,Incomplete,Incomplete,Incomplete,Incomplete,A (young) man is juggling (three balls).,man,juggling,balls,,3,FED_20191204a_3T2,15,79
SPROD,6915921596.jpg,114,2,4,0,ekbdi pd,??,??,Unknown,Incomplete,Incomplete,Incomplete,Incomplete,A woman is grooming/brushing a horse.,woman,grooming/brushing,horse,mane/hair,3,FED_20191204a_3T2,16,86
SPROD,4464176007.jpg,119,2,4,0,bfi pm trf;m,??,??,Unknown,Incomplete,Incomplete,Incomplete,Incomplete,A man is sitting on a bench reading the newspaper.,man,sitting/reading,newspaper,bench,3,FED_20191204a_3T2,17,93
SPROD,4400746838.jpg,71,2,4,0,1,1,1,??,Incomplete,Incomplete,Incomplete,Incomplete,A young girl is covering her eyes.,girl,covering,eyes,hand,3,FED_20191204a_3T2,35,202
SPROD,4555514125.jpg,86,2,4,0,ltio pg vlogoky,??,??,Unknown,Incomplete,Incomplete,Incomplete,Incomplete,A man is pushing a couch down a street/sidewalk.,man,pushing,couch,sidewalk/street,3,FED_20191204a_3T2,36,209
SPROD,36979.jpg,66,2,4,0,oykolyrfltm,??,??,Unknown,Incomplete,Incomplete,Incomplete,Incomplete,A group of people are playing poker.,group,playing,poker,,3,FED_20191204a_3T2,37,216
SPROD,6094931376.jpg,100,2,4,0,"myi ];dpo,h vf",??,??,Unknown,Incomplete,Incomplete,Incomplete,Incomplete,A group of people are hiking (up a mountain/trail).,group,hiking,,mountain/trail,3,FED_20191204a_3T2,38,223
SPROD,4121133646.jpg,45,1,9,0,looking a a rock,looking at a rock,/looking/ at a rock,2+,Subject-less Gerund Verb Phrase With Grammatically Well-Formed Object,NA,0,1,A boy is using a magnifying glass to look at a rock.,boy,using,magnifying glass,rock,3,FED_20200130d_3T2,6,28
SPROD,4855357158.jpg,23,1,9,0,canoing,canoing,canoing,1,Gerund,NA,0,NA,A man is carrying a canoe.,man,carrying,canoe,,3,FED_20200130d_3T2,7,35
SPROD,6721214117.jpg,41,1,9,0,bowling,bowling,bowling,1,Gerund,NA,0,NA,A man is bowling.,man,bowling,,,3,FED_20200130d_3T2,8,42
SPROD,4621100791.jpg,5,1,9,0,sleeping outside,sleeping outside,/sleeping/ outside,2+,Subject-less Gerund Verb Phrase With Grammatically Well-Formed Object,NA,0,1,A man is sleeping on a chair/bench (outside).,man,sleeping,bench,outside,3,FED_20200130d_3T2,9,49
SPROD,325742196.jpg,4,1,9,0,a girl is playing iwth toys,a girl is playing with toys,a girl /is playing/ with toys,2+,Subject and Tensed Gerund Verb Well Formed,1,1,1,A little girl is playing with dolls/toys.,girl,playing,toys/dolls,,3,FED_20200130d_3T2,43,246
SPROD,4678843953.jpg,32,1,9,0,a man is throwing a ax,a man is throwing a ax,a man /is throwing/ a ax,2+,Subject and Tensed Gerund Verb Well Formed,1,1,1,A man is throwing an axe.,man,throwing,axe,,3,FED_20200130d_3T2,44,253
SPROD,41999070.jpg,46,1,9,0,dogs are swimming,dogs are swimming,dogs /are swimming/,2+,Subject and Tensed Gerund Verb Well Formed,1,1,NA,A group of dogs are playing in a fountain/pool.,group,playing,,fountain/pool/water,3,FED_20200130d_3T2,45,260
SPROD,4580613274.jpg,34,1,9,0,a man is sweeping the stairs,a man is sweeping the stairs,a man /is sweeping/ the stairs,2+,Subject and Tensed Gerund Verb Well Formed,1,1,1,A man is sweeping the steps.,man,sweeping,steps,,3,FED_20200130d_3T2,46,267
SPROD,6596861005.jpg,17,1,10,0,reading a map,reading a map,/reading/ a map,2+,Subject-less Gerund Verb Phrase With Grammatically Well-Formed Object,NA,0,1,A woman is reading a map.,woman,reading,map,water,4,FED_20200130d_3T2,10,58
SPROD,7579008108.jpg,53,1,10,0,a man is jumping from a cliff,a man is jumping from a cliff,a man /is jumping /from a cliff,2+,Subject and Tensed Gerund Verb Well Formed,1,1,1,A man is jumping (off a rock/cliff) into the water.,man,jumping,,cliff/water/ocean/water,4,FED_20200130d_3T2,11,65
SPROD,6939434967.jpg,55,1,10,0,kids are playing jjumprope,kids are playing jump rope,kids /are playing /jump rope,2+,Subject and Tensed Gerund Verb Well Formed,1,1,1,Three girls are playing jump rope.,girls,playing,jump rope,,4,FED_20200130d_3T2,12,72
SPROD,4772785237.jpg,25,1,10,0,a man is sweepiong the sidewalk,a man is sweeping the sidewalk,a man/ is sweeping/ the sidewalk,2+,Subject and Tensed Gerund Verb Well Formed,1,1,1,A man is sweeping the sidewalk.,man,sweeping,sidewalk,,4,FED_20200130d_3T2,13,79
SPROD,6915574150.jpg,6,1,10,0,a girl is holding a oothbrush,a girl is holding a toothbrush,a girl /is holding/ a toothbrush,2+,Subject and Tensed Gerund Verb Well Formed,1,1,1,A toddler is holding a toothbrush.,toddler,holding,toothbrush,,4,FED_20200130d_3T2,39,216
SPROD,35268263.jpg,60,1,10,0,a woman is sweing,a woman is sewing,a woman/ is sewing/,2+,Subject and Tensed Gerund Verb Well Formed,1,1,NA,A woman is sewing (on her sewing machine).,woman,sewing/using,sewing machine,,4,FED_20200130d_3T2,40,223
SPROD,1414454789.jpg,61,1,10,0,people are cooking,people are cooking,people/ are cooking/,2+,Subject and Tensed Gerund Verb Well Formed,1,1,NA,Chefs are preparing food in a kitchen.,chefs,preparing,food,kitchen,4,FED_20200130d_3T2,41,230
SPROD,4263999253.jpg,56,1,10,0,kids are shoveling snow,kids are shoveling snow,kids /are shoveling/ snow,2+,Subject and Tensed Gerund Verb Well Formed,1,1,1,Two kids are shoveling snow.,kids,shoveling,snow,,4,FED_20200130d_3T2,42,237
SPROD,4580613274.jpg,34,1,3,0,TJDEKE-9JH,??,??,?,?,?,?,?,A man is sweeping the steps.,man,sweeping,steps,,3,FED_20191204c_3T2,18,102
SPROD,4705826062.jpg,49,1,3,0,RSY9JH 9VRVTSM,??,??,?,?,?,?,?,A man is eating an ice cream cone.,man,eating,ice cream cone,,3,FED_20191204c_3T2,19,109
SPROD,6110845331.jpg,24,1,3,0,FTSE9JH,??,??,?,?,?,?,?,A girl is coloring with crayons (on the floor?).,girl,coloring,,crayons/floor,3,FED_20191204c_3T2,20,116
SPROD,4766583860.jpg,38,1,3,0,DE9H9NH,??,??,?,?,?,?,?,A girl is swinging (on a swing).,girl,swinging,,swing set,3,FED_20191204c_3T2,21,123
SPROD,4585839343.jpg,44,1,3,0,DANDEPOMS,dandelions,dandelions,1,Noun,NA,NA,NA,A woman is blowing on a dandelion.,woman,blowing,dandelion/flower,field,3,FED_20191204c_3T2,31,172
SPROD,6681702227.jpg,33,1,3,0,GAR9CU7T,haircut,haircut,1,Noun,NA,NA,NA,A woman is cutting a man's hair.,woman,cutting,hair,man/haircut,3,FED_20191204c_3T2,32,179
SPROD,6845394024.jpg,7,1,3,0,CRSHING TEETH,brushing teeth,brushing/ teeth,2+,"Subject-less Gerund Phrase ""Newspaper Headline Syntax"" Object",NA,0,0,A (young) boy is brushing his teeth.,boy,brushing,teeth,,3,FED_20191204c_3T2,33,186
SPROD,4896173039.jpg,22,1,3,0,READ8HG,reading,reading,1,Gerund,NA,0,NA,A woman is reading a book.,woman,reading,book,outside,3,FED_20191204c_3T2,34,193
SPROD,7995263133.jpg,64,1,8,0,d;rrpimg vjo;f,sleeping boy,sleeping/ boy,2+,"Subject and Gerund ""Newspaper Syntax""",0,0,NA,A young boy is sleeping (on a striped pillow).,boy,sleeping,,pillow,5,FED_20200130a_3T2,2,14
SPROD,5194023863.jpg,28,1,8,0,got vko;f eotk,girl ?? ??,girl ?? ??,Unknown,Unknown,Unknown,Unknown,Unknown,A (little) girl is holding a snail.,girl,holding,snail,,5,FED_20200130a_3T2,3,21
SPROD,4618092593.jpg,37,1,8,0,".s, giuom,h jsot",??,??,Unknown,Unknown,Unknown,Unknown,Unknown,Two men are shaving their heads.,men,shaving,heads,razor,5,FED_20200130a_3T2,4,28
SPROD,4704668708.jpg,15,1,8,0,"goit,;oolimh st eo,",gift ???,gift ???,Unknown,Unknown,Unknown,Unknown,Unknown,A little boy is opening a gift/present.,boy,opening,gift/present,,5,FED_20200130a_3T2,5,35
SPROD,5840187633.jpg,35,1,8,0,".a, v;armoimg varttwom,",??,??,Unknown,Unknown,Unknown,Unknown,Unknown,A little girl is walking on a treadmill.,girl,walking,,treadmill,5,FED_20200130a_3T2,47,260
SPROD,4621100791.jpg,5,1,8,0,rtedtomh,??,??,Unknown,Unknown,Unknown,Unknown,Unknown,A man is sleeping on a chair/bench (outside).,man,sleeping,bench,outside,5,FED_20200130a_3T2,48,267
SPROD,4050265867.jpg,18,1,8,0,mnamt eawning,baby yawning,baby /yawning/,2+,"Subject and Gerund ""Newspaper Syntax""",0,0,NA,A baby is yawning.,baby,yawning,,,5,FED_20200130a_3T2,49,274
SPROD,6354735653.jpg,62,1,8,0,hou tekkimh,?? Trekking,?? Trekking,Unknown,Unknown,Unknown,Unknown,NA,A man is rock climbing.,man,rock climbing,,cliff/rock,5,FED_20200130a_3T2,50,281
SPROD,2667549961.jpg,10,1,9,0,A BABY IS REACHING FOR A WATER BOTTLE,a baby is reaching for a water bottle,a baby /is reaching/ for a water bottle,2+,Subject and Tensed Gerund Verb Well Formed,1,1,1,A baby is crawling (on a floor toward a water bottle).,baby,crawling,,floor/bottle,4,FED_20200205c_3T2,6,28
SPROD,6596861005.jpg,17,1,9,0,A WOMAN IS READING A MAP,a woman is reading a map,a woman /is reading/ a map,2+,Subject and Tensed Gerund Verb Well Formed,1,1,1,A woman is reading a map.,woman,reading,map,water,4,FED_20200205c_3T2,7,35
SPROD,7579008108.jpg,53,1,9,0,A MAN IS CLIFF DIVING,a man is cliff diving,a man /is cliff diving/,2+,Subject and Tensed Gerund Verb Well Formed,1,1,NA,A man is jumping (off a rock/cliff) into the water.,man,jumping,,cliff/water/ocean/water,4,FED_20200205c_3T2,8,42
SPROD,4789495327.jpg,31,1,9,0,A WOMAN IS ON THE PHONE,a woman is on the phone,a woman /is/ on the phone,2+,Subject and Tensed Gerund Verb Well Formed,1,1,1,A woman is talking on a cell phone.,woman,talking,,cell phone,4,FED_20200205c_3T2,9,49
SPROD,4050265867.jpg,18,1,9,0,A BABY IS YAWNING,a baby is yawning,a baby /is yawning/,2+,Subject and Tensed Gerund Verb Well Formed,1,1,NA,A baby is yawning.,baby,yawning,,,4,FED_20200205c_3T2,43,246
SPROD,5669914204.jpg,13,1,9,0,A YOUNG BOY IS LOOKING OUT OF A TELESCOPE,a young boy is looking out of a telescope,a young boy /is looking/ out of a telescope,2+,Subject and Tensed Gerund Verb Well Formed,1,1,1,A (young) boy is looking through a telescope.,boy,looking,,telescope,4,FED_20200205c_3T2,44,253
SPROD,5534793306.jpg,48,1,9,0,A MAN IS PAINTING,a man is painting,a man /is painting/,2+,Subject and Tensed Gerund Verb Well Formed,1,1,NA,A man is painting a column (on a ladder).,man,painting,column,ladder,4,FED_20200205c_3T2,45,260
SPROD,4704668708.jpg,15,1,9,0,A BOY IS OPENING A GIFT,a boy is opening a gift,a boy /is opening/ a gift,2+,Subject and Tensed Gerund Verb Well Formed,1,1,1,A little boy is opening a gift/present.,boy,opening,gift/present,,4,FED_20200205c_3T2,46,267
SPROD,4607606901.jpg,3,1,5,0,girl petting deer,girl petting deer,girl /petting/ deer,2+,"Subject and Gerund ""Newspaper Syntax""",0,0,0,A (young) girl is petting a deer.,girl,petting,deer,,2,FED_20200130b_3T2,10,58
SPROD,4585839343.jpg,44,1,5,0,blowing dandelions,blowing dandelions,/blowing/ dandelions,2+,Subject-less Gerund Verb Phrase With Grammatically Well-Formed Object,NA,0,1,A woman is blowing on a dandelion.,woman,blowing,dandelion/flower,field,2,FED_20200130b_3T2,11,65
SPROD,6939434967.jpg,55,1,5,0,jumnping rope,jumping rope,/jumping/ rope,2+,Subject-less Gerund Verb Phrase With Grammatically Well-Formed Object,NA,0,1,Three girls are playing jump rope.,girls,playing,jump rope,,2,FED_20200130b_3T2,12,72
SPROD,4855357158.jpg,23,1,5,0,portageing a canoe,portaging a canoe,/portaging/ a canoe,2+,Subject-less Gerund Verb Phrase With Grammatically Well-Formed Object,NA,0,1,A man is carrying a canoe.,man,carrying,canoe,,2,FED_20200130b_3T2,13,79
SPROD,6110845331.jpg,24,1,5,0,drawing,drawing,drawing,1,Gerund,NA,0,NA,A girl is coloring with crayons (on the floor?).,girl,coloring,,crayons/floor,2,FED_20200130b_3T2,39,216
SPROD,35268263.jpg,60,1,5,0,sewing,sewing,sewing,1,Gerund,NA,0,NA,A woman is sewing (on her sewing machine).,woman,sewing/using,sewing machine,,2,FED_20200130b_3T2,40,223
SPROD,4678843953.jpg,32,1,5,0,throwing azees,throwing axes,/throwing/ axes,2+,Subject-less Gerund Verb Phrase With Grammatically Well-Formed Object,NA,0,1,A man is throwing an axe.,man,throwing,axe,,2,FED_20200130b_3T2,41,230
SPROD,29850055.jpg,50,1,5,0,playing in the sand,playing in the sand,/playing/ in the sand,2+,Subject-less Gerund Verb Phrase With Grammatically Well-Formed Object,NA,0,1,A (little/young) boy is playing in the sand.,boy,playing,,sand,2,FED_20200130b_3T2,42,237
SPROD,4786057236.jpg,78,2,6,0,a man is playing according,a man is playing accordion,a man /is playing /accordion,2+,"Subject and Tensed Gerund Verb ""Newspaper Syntax""",1,1,0,A man is playing the accordion.,man,playing,accordion,,6,FED_20191120c_3T2,6,44
SPROD,4597303045.jpg,73,2,6,0,a kid is vaping on the beach,a kid is vaping on the beach,a kid /is vaping/ on the beach,2+,Subject and Tensed Gerund Verb Well Formed,1,1,1,A man is smoking a pipe (on a rock).,man,smoking,pipe,rock/beach/water,6,FED_20191120c_3T2,7,51
SPROD,104669470.jpg,70,2,6,0,an woman is walking with a head,a woman is walking with a head,a woman/ is walking/ with a head,2+,Subject and Tensed Gerund Verb Well Formed,1,1,1,A woman is carrying a bowl of fruit on her head.,woman,carrying,bowl,fruit/head,6,FED_20191120c_3T2,8,58
SPROD,7348289414.jpg,108,2,6,0,kiddo eating an apple,kiddo eating an apple,kiddo /eating/ an apple,2+,"Subject and Gerund ""Newspaper Syntax""",0,0,1,A (young) child is eating an apple.,child,eating,apple,,6,FED_20191120c_3T2,9,65
SPROD,41105465.jpg,80,2,6,0,"aa m,an doing yoga",a man doing yoga,a man/ doing/ yoga,2+,Subject and Gerund Well-Formed,1,0,1,A man is meditating in a park.,man,meditating,,park,6,FED_20191120c_3T2,43,230
SPROD,4548039526.jpg,69,2,6,0,two men beaching,two men beaching,two men/ beaching/,2+,"Subject and Gerund ""Newspaper Syntax""",1,0,NA,Two (older) men are walking on the beach.,men,walking,,beach/water,6,FED_20191120c_3T2,44,237
SPROD,7773991560.jpg,83,2,6,0,a boy playing pool,a boy playing pool,a boy/ playing/ pool,2+,Subject and Gerund Well-Formed,1,0,1,A man is playing pool.,man,playing,pool,,6,FED_20191120c_3T2,45,244
SPROD,7742281954.jpg,85,2,6,0,a man playing sacophone,a man playing saxophone,a man /playing/ saxophone,2+,Subject and Gerund Well-Formed,1,0,0,A man is playing the saxophone.,man,playing,saxophone,outside/garden,6,FED_20191120c_3T2,46,251
SPROD,35268263.jpg,60,1,11,0,A WOMAN IS SWING,a woman is sewing,a woman /is sewing/,2+,Subject and Tensed Gerund Verb Well Formed,1,1,NA,A woman is sewing (on her sewing machine).,woman,sewing/using,sewing machine,,2,FED_20200205c_3T2,14,72
SPROD,4263999253.jpg,56,1,11,0,A GIRL IS PLOWING THE SNOW,a girl is plowing the snow,a girl /is plowing/ the snow,2+,Subject and Tensed Gerund Verb Well Formed,1,1,1,Two kids are shoveling snow.,kids,shoveling,snow,,2,FED_20200205c_3T2,15,79
SPROD,6918285809.jpg,21,1,11,0,A MAN IS BARTENDING,a man is bartending,a man/ is bartending/,2+,Subject and Tensed Gerund Verb Well Formed,1,1,NA,A bartender is pouring/mixing a drink.,bartender,pouring/mixing,drink,glass,2,FED_20200205c_3T2,16,86
SPROD,7188003.jpg,51,1,11,0,A MAN IS SKIING DOWN A SLOPE,a man is skiing down a slope,a man/ is skiing/ down a slope,2+,Subject and Tensed Gerund Verb Well Formed,1,1,1,A person is skiing down a steep slope.,person,skiing,slope,,2,FED_20200205c_3T2,17,93
SPROD,7380263314.jpg,1,1,11,0,A GIRL IS MAKING A SAND CASTLE,a girl is making a sand castle,a girl /is making/ a sand castle,2+,Subject and Tensed Gerund Verb Well Formed,1,1,1,A girl is digging sand at the beach.,girl,digging,sand,beach/shovel,2,FED_20200205c_3T2,35,202
SPROD,4585839343.jpg,44,1,11,0,A WOMAN IS BLOWING DENDELIONS,a woman is blowing dandelions,a woman/ is blowing /dandelions,2+,Subject and Tensed Gerund Verb Well Formed,1,1,1,A woman is blowing on a dandelion.,woman,blowing,dandelion/flower,field,2,FED_20200205c_3T2,36,209
SPROD,7995263133.jpg,64,1,11,0,A BOY IS SLEEPING,a boy is sleeping,a boy /is sleeping/,2+,Subject and Tensed Gerund Verb Well Formed,1,1,NA,A young boy is sleeping (on a striped pillow).,boy,sleeping,,pillow,2,FED_20200205c_3T2,37,216
SPROD,3818278154.jpg,39,1,11,0,A GROUP OF PEOPLE ARE YOGAING AT THE BHEACH,a group of people are yogaing at the beach,a group of people/ are yogaing/ at the beach,2+,Subject and Tensed Gerund Verb Well Formed,1,1,1,A group of people are doing yoga on a beach.,group,doing,yoga,beach,2,FED_20200205c_3T2,38,223
SPROD,6160193920.jpg,90,2,2,0,Unintelligible,unintelligible,unintelligible,unintelligible,unintelligible,unintelligible,unintelligible,unintelligible,A woman is smiling/laughing.,woman,smiling/laughing,,,2,FED_20200213b_3T2,22,116
SPROD,8088804992.jpg,115,2,2,0,Unintelligible,unintelligible,unintelligible,unintelligible,unintelligible,unintelligible,unintelligible,unintelligible,A woman is jogging/running.,woman,jogging/running,,outside,2,FED_20200213b_3T2,23,123
SPROD,5326507136.jpg,95,2,2,0,Unintelligible,unintelligible,unintelligible,unintelligible,unintelligible,unintelligible,unintelligible,unintelligible,A woman is painting her nails.,woman,painting,nails,,2,FED_20200213b_3T2,24,130
SPROD,4400746838.jpg,71,2,2,0,Unintelligible,unintelligible,unintelligible,unintelligible,unintelligible,unintelligible,unintelligible,unintelligible,A young girl is covering her eyes.,girl,covering,eyes,hand,2,FED_20200213b_3T2,25,137
SPROD,4633221176.jpg,110,2,2,0,Unintelligible,unintelligible,unintelligible,unintelligible,unintelligible,unintelligible,unintelligible,unintelligible,A baby is crying.,baby,crying,,,2,FED_20200213b_3T2,27,158
SPROD,281706216.jpg,67,2,2,0,Unintelligible,unintelligible,unintelligible,unintelligible,unintelligible,unintelligible,unintelligible,unintelligible,A man is digging a hole.,man,digging,hole,,2,FED_20200213b_3T2,28,165
SPROD,6094931376.jpg,100,2,2,0,Unintelligible,unintelligible,unintelligible,unintelligible,unintelligible,unintelligible,unintelligible,unintelligible,A group of people are hiking (up a mountain/trail).,group,hiking,,mountain/trail,2,FED_20200213b_3T2,29,172
SPROD,5565536413.jpg,126,2,2,0,Unintelligible,unintelligible,unintelligible,unintelligible,unintelligible,unintelligible,unintelligible,unintelligible,A man is painting a mural.,man,painting,mural,door,2,FED_20200213b_3T2,30,179
SPROD,2667549961.jpg,10,1,7,0,"bjop;r bteoilim,",??,??,Unknown,Unknown,Unknown,Unknown,Unknown,A baby is crawling (on a floor toward a water bottle).,baby,crawling,,floor/bottle,6,FED_20200130a_3T2,22,116
SPROD,4387675829.jpg,14,1,7,0,"hnbjkp;rf ['siotop,h ']",??,??,Unknown,Unknown,Unknown,Unknown,Unknown,A girl is playing with a toy train.,girls,playing,,toy train,6,FED_20200130a_3T2,23,123
SPROD,3672940355.jpg,12,1,7,0,"0jvo;[;so9],j ,gpptns;p[;s",??,??,Unknown,Unknown,Unknown,Unknown,Unknown,A young girl is kicking a ball.,girl,kicking,ball,outside/yard/grass,6,FED_20200130a_3T2,24,130
SPROD,29850055.jpg,50,1,7,0,"o,gh] su jmrtdgbik",??,??,Unknown,Unknown,Unknown,Unknown,Unknown,A (little/young) boy is playing in the sand.,boy,playing,,sand,6,FED_20200130a_3T2,25,137
SPROD,55903788.jpg,2,1,7,0,"gggotdgro,;aerm v;rasoimh",??,??,Unknown,Unknown,Unknown,Unknown,Unknown,A woman brushes another woman's hair.,woman,brushes,hair,woman,6,FED_20200130a_3T2,27,158
SPROD,4434125934.jpg,29,1,7,0,nlu doyyimh,??,??,Unknown,Unknown,Unknown,Unknown,Unknown,A man is mowing the lawn/pushing a lawnmower.,man,moving/pushing,lawn/lawnmower,,6,FED_20200130a_3T2,28,165
SPROD,3819214047.jpg,59,1,7,0,om gop opi djk,??,??,Unknown,Unknown,Unknown,Unknown,Unknown,A boy/man is sitting on his skateboard.,man,sitting,,skateboard,6,FED_20200130a_3T2,29,172
SPROD,4121133646.jpg,45,1,7,0,"peom,",??,??,Unknown,Unknown,Unknown,Unknown,Unknown,A boy is using a magnifying glass to look at a rock.,boy,using,magnifying glass,rock,6,FED_20200130a_3T2,30,179
SPROD,3800306463.jpg,77,2,11,0,"tje npuos jiffomc ic,ners",the boy is holding cucumbers,the boy /is holding/ cucumbers,2+,Subject and Tensed Gerund Verb Well Formed,1,1,1,A (little) boy is holding two large cucumbers.,boy,holding,cucumbers,,5,FED_20191120b_3T2,14,72
SPROD,7742281954.jpg,85,2,11,0,"tje ,am os [;auomgsap[jpme",the man is playing saxophone,the man /is playing/ saxophone,2+,"Subject and Tensed Gerund Verb ""Newspaper Syntax""",1,1,0,A man is playing the saxophone.,man,playing,saxophone,outside/garden,5,FED_20191120b_3T2,15,79
SPROD,5925544950.jpg,125,2,11,0,"tje wp,am os fosjomg",the woman is fishing,the woman /is fishing/,2+,Subject and Tensed Gerund Verb Well Formed,1,1,NA,A woman is fishing.,woman,fishing,,lake/river/pond,5,FED_20191120b_3T2,16,86
SPROD,3808935147.jpg,106,2,11,0,"tje npus are ki,[omg pm tje tra,[p;ome",the boys are jumping on the trampoline,the boys /are jumping/ on the trampoline,2+,Subject and Tensed Gerund Verb Well Formed,1,1,1,Two boys are jumping on a trampoline.,boys,jumping,,trampoline,5,FED_20191120b_3T2,17,93
SPROD,7119846943.jpg,75,2,11,0,the gor; os ji;a jpp[omg wotj twp,the girl is hula hooping with two,the girl/ is hula hooping /with two,2+,Subject and Tensed Gerund Verb Well Formed,1,1,1,A girl is hula-hooping.,girl,hula-hooping,,,5,FED_20191120b_3T2,35,202
SPROD,4858197102.jpg,103,2,11,0,tje nanu oss uawmiomg,the baby is yawning,the baby /is yawning/,2+,Subject and Tensed Gerund Verb Well Formed,1,1,NA,A man is holding a (newborn) baby.,man,holding,baby,,5,FED_20191120b_3T2,36,209
SPROD,6338733.jpg,84,2,11,0,"tje wp,am os jp;domg a stp[ sogm",the woman is holding a stop sign,the woman /is holding/ a stop sign,2+,Subject and Tensed Gerund Verb Well Formed,1,1,1,A woman is holding a stop sign.,woman,holding,stop sign,,5,FED_20191120b_3T2,37,216
SPROD,5411504795.jpg,124,2,11,0,tje for; os smoffomg a f;pwe,the girl is smelling a flower,the girl /is smelling/ a flower,2+,Subject and Tensed Gerund Verb Well Formed,1,1,1,A little girl is smelling a flower.,girl,smelling,flower,,5,FED_20191120b_3T2,38,223
SPROD,6845394024.jpg,7,1,2,0,child is briushing his teeth,child is brushing his teeth,child/ is brushing /his teeth,2+,Subject and Tensed Gerund Verb Well Formed,1,1,1,A (young) boy is brushing his teeth.,boy,brushing,teeth,,2,FED_20200205a_3T2,22,116
SPROD,7995263133.jpg,64,1,2,0,young boy sleeping,young boy sleeping,young boy /sleeping/,2+,"Subject and Gerund ""Newspaper Syntax""",0,0,NA,A young boy is sleeping (on a striped pillow).,boy,sleeping,,pillow,2,FED_20200205a_3T2,23,123
SPROD,6110845331.jpg,24,1,2,0,young girl is coloring on poster,young girl is coloring on poster,young girl /is coloring/ on poster,2+,"Subject and Tensed Gerund Verb ""Newspaper Syntax""",0,1,0,A girl is coloring with crayons (on the floor?).,girl,coloring,,crayons/floor,2,FED_20200205a_3T2,24,130
SPROD,4585839343.jpg,44,1,2,0,woman is blowing dandelions,woman is blowing dandelions,woman /is blowing/ dandelions,2+,"Subject and Tensed Gerund Verb ""Newspaper Syntax""",0,1,1,A woman is blowing on a dandelion.,woman,blowing,dandelion/flower,field,2,FED_20200205a_3T2,25,137
SPROD,5220880759.jpg,16,1,2,0,man is takinga shower,man is taking a shower,man/ is taking/ a shower,2+,"Subject and Tensed Gerund Verb ""Newspaper Syntax""",0,1,1,A man is taking a shower.,man,taking,shower,,2,FED_20200205a_3T2,27,158
SPROD,33256003.jpg,36,1,2,0,a woman is putting on lipstick and smiling,a woman is putting on lipstick and smiling,a woman /is putting /on lipstick and smiling,2+,Subject and Tensed Gerund Verb Well Formed,1,1,1,A woman is applying lipstick.,woman,applying,lipstick,,2,FED_20200205a_3T2,28,165
SPROD,6721214117.jpg,41,1,2,0,a man is bowling,a man is bowling,a man/ is bowling/,2+,Subject and Tensed Gerund Verb Well Formed,1,1,1,A man is bowling.,man,bowling,,,2,FED_20200205a_3T2,29,172
SPROD,6354735653.jpg,62,1,2,0,a man is rock climbingrs,a man is rock climbing,a man/ is rock climbing/,2+,Subject and Tensed Gerund Verb Well Formed,1,1,NA,A man is rock climbing.,man,rock climbing,,cliff/rock,2,FED_20200205a_3T2,30,179
SPROD,5669914204.jpg,13,1,10,0,LOOKING AT TELESCOPE,looking at telescope,/looking/ at telescope,2+,"Subject-less Gerund Phrase ""Newspaper Headline Syntax"" Object",NA,0,0,A (young) boy is looking through a telescope.,boy,looking,,telescope,4,FED_20191204b_3T2,10,58
SPROD,5840187633.jpg,35,1,10,0,GIRL ON TREADMILL,girl on treadmill,girl //on treadmill,2+,Noun Phrase,NA,NA,0,A little girl is walking on a treadmill.,girl,walking,,treadmill,4,FED_20191204b_3T2,11,65
SPROD,3677329561.jpg,27,1,10,0,WASHING THE DOG,washing the dog,/washing/ the dog,2+,Subject-less Gerund Verb Phrase With Grammatically Well-Formed Object,NA,0,1,Two girls are washing a dog.,girls,washing,dog,outside,4,FED_20191204b_3T2,12,72
SPROD,4789495327.jpg,31,1,10,0,CALLING ON CELL PHONE,calling on cell phone,/calling/ on cell phone,2+,"Subject-less Gerund Phrase ""Newspaper Headline Syntax"" Object",NA,0,0,A woman is talking on a cell phone.,woman,talking,,cell phone,4,FED_20191204b_3T2,13,79
SPROD,4585839343.jpg,44,1,10,0,A WOMAN IS PICKING FLOWERS,a woman is picking flowers,a woman /is picking/ flowers,2+,Subject and Tensed Gerund Verb Well Formed,1,1,1,A woman is blowing on a dandelion.,woman,blowing,dandelion/flower,field,4,FED_20191204b_3T2,39,216
SPROD,4896173039.jpg,22,1,10,0,A WOMAN IS READING,a woman is reading,a woman/ is reading/,2+,Subject and Tensed Gerund Verb Well Formed,1,1,NA,A woman is reading a book.,woman,reading,book,outside,4,FED_20191204b_3T2,40,223
SPROD,6882674785.jpg,20,1,10,0,A GIRL IS BLIOWING BUBBLES,a girl is blowing bubbles,a girl /is blowing/ bubbles,2+,Subject and Tensed Gerund Verb Well Formed,1,1,1,A little girl is blowing bubbles.,girl,blowing,bubbles,,4,FED_20191204b_3T2,41,230
SPROD,4696829163.jpg,54,1,10,0,A BOY IS FISHING,a boy is fishing,a boy /is fishing/,2+,Subject and Tensed Gerund Verb Well Formed,1,1,NA,A boy is holding up a fish (he caught).,boy,holding,fish,caught,4,FED_20191204b_3T2,42,237
SPROD,3673032164.jpg,117,2,12,0,"AE, QEWAR;MIF",??,??,??,Unknown,Unknown,Unknown,Unknown,Two girls are arm-wrestling.,girls,arm-wrestling,,,1,FED_20191120d_3T2,18,86
SPROD,4753970630.jpg,122,2,12,0,JUMPING INTO POOL,jumping into pool,/jumping/ into pool,2+,"Subject-less Gerund Phrase ""Newspaper Headline Syntax"" Object",NA,0,0,A little girl is jumping into a pool.,girl,jumping,,pool,1,FED_20191120d_3T2,19,93
SPROD,4968012871.jpg,72,2,12,0,HOLDING CHIECKEN,holding chicken,/holding/ chicken,2+,"Subject-less Gerund Phrase ""Newspaper Headline Syntax"" Object",NA,0,0,A woman is holding a chicken/rooster.,woman,holding,chicken/rooster,,1,FED_20191120d_3T2,20,100
SPROD,5334523454.jpg,120,2,12,0,HOLDING BIRDS,holding birds,/holding/ birds,2+,Subject-less Gerund Verb Phrase With Grammatically Well-Formed Object,NA,0,1,A boy is holding a bird in his hands.,boy,holding,bird,hands,1,FED_20191120d_3T2,21,107
SPROD,6552971469.jpg,102,2,12,0,SINGING,singing,singing,1,Gerund,NA,0,NA,A choir is singing.,choir,singing,,,1,FED_20191120d_3T2,31,188
SPROD,104669470.jpg,70,2,12,0,FRUIT ON HEAD,fruit on head,fruit //on head,2+,Noun Phrase,0,NA,0,A woman is carrying a bowl of fruit on her head.,woman,carrying,bowl,fruit/head,1,FED_20191120d_3T2,32,195
SPROD,4986581949.jpg,81,2,12,0,ON SUBWAY,on subway,//on subway,2+,Noun Phrase,NA,NA,0,A woman is sitting on the subway.,woman,sitting,subway,,1,FED_20191120d_3T2,33,202
SPROD,28144507.jpg,96,2,12,0,WASHING WINDOQ,washing window,/washing/ window,2+,"Subject-less Gerund Phrase ""Newspaper Headline Syntax"" Object",NA,0,0,A man is washing windows.,man,washing,windows,,1,FED_20191120d_3T2,34,209
SPROD,6053720349.jpg,11,1,1,0,child sits in suitcase,child sits in suitcase,child /sits/ in suitcase,2+,"Subject and Non-Gerund Verb ""Newspaper Syntax""",0,1,0,A baby is sitting in a suitcase.,baby,sitting,,suitcase/luggage,6,FED_20200130b_3T2,2,14
SPROD,3819214047.jpg,59,1,1,0,kid sits on his board,kid sits on his board,kid /sits /on his board,2+,"Subject and Non-Gerund Verb ""Newspaper Syntax""",0,1,1,A boy/man is sitting on his skateboard.,man,sitting,,skateboard,6,FED_20200130b_3T2,3,21
SPROD,5534793306.jpg,48,1,1,0,manpaints a column,man paints a column,man/ paints/ a column,2+,"Subject and Non-Gerund Verb ""Newspaper Syntax""",0,1,1,A man is painting a column (on a ladder).,man,painting,column,ladder,6,FED_20200130b_3T2,4,28
SPROD,7995263133.jpg,64,1,1,0,boy sleeps on pillow,boy sleeps on pillow,boy /sleeps /on pillow,2+,"Subject and Non-Gerund Verb ""Newspaper Syntax""",0,1,0,A young boy is sleeping (on a striped pillow).,boy,sleeping,,pillow,6,FED_20200130b_3T2,5,35
SPROD,6237869128.jpg,63,1,1,0,woman puts on boot,woman puts on boot,woman /puts/ on boot,2+,"Subject and Non-Gerund Verb ""Newspaper Syntax""",0,1,0,A woman is putting on a boot.,woman,putting on,boot,floor,6,FED_20200130b_3T2,47,260
SPROD,4263999253.jpg,56,1,1,0,kids shobel,kids shovel,kids /shovel/,2+,"Subject and Non-Gerund Verb ""Newspaper Syntax""",1,1,NA,Two kids are shoveling snow.,kids,shoveling,snow,,6,FED_20200130b_3T2,48,267
SPROD,7188003.jpg,51,1,1,0,skiing,skiing,skiing,1,Gerund,NA,0,NA,A person is skiing down a steep slope.,person,skiing,slope,,6,FED_20200130b_3T2,49,274
SPROD,4896173039.jpg,22,1,1,0,woman reads journal,woman reads journal,woman /reads/ journal,2+,"Subject and Non-Gerund Verb ""Newspaper Syntax""",0,1,0,A woman is reading a book.,woman,reading,book,outside,6,FED_20200130b_3T2,50,281
SPROD,4580613274.jpg,34,1,4,0,",SM DERRPINH DTRPD",man sweeping steps,man /sweeping/ steps,2+,"Subject and Gerund ""Newspaper Syntax""",0,0,0,A man is sweeping the steps.,man,sweeping,steps,,3,FED_20200205b_3T2,14,72
SPROD,4705826062.jpg,49,1,4,0,",SM RSYIMNH IBT BTRTDM",man eating ice cream,man /eating/ ice cream,2+,"Subject and Gerund ""Newspaper Syntax""",0,0,1,A man is eating an ice cream cone.,man,eating,ice cream cone,,3,FED_20200205b_3T2,15,79
SPROD,6110845331.jpg,24,1,4,0,HITL GTDSEINH ON GLOOT,girl coloring on floor,girl /coloring/ on floor,2+,"Subject and Gerund ""Newspaper Syntax""",0,0,0,A girl is coloring with crayons (on the floor?).,girl,coloring,,crayons/floor,3,FED_20200205b_3T2,16,86
SPROD,4766583860.jpg,38,1,4,0,GORTL ON DEINHDET,girl on swingset,girl //on swingset,2+,Noun Phrase,0,NA,0,A girl is swinging (on a swing).,girl,swinging,,swing set,3,FED_20200205b_3T2,17,93
SPROD,4585839343.jpg,44,1,4,0,BLIOSSINGH FSNFRLION,blowing dandelion,/blowing/ dandelion,2+,"Subject-less Gerund Phrase ""Newspaper Headline Syntax"" Object",NA,0,0,A woman is blowing on a dandelion.,woman,blowing,dandelion/flower,field,3,FED_20200205b_3T2,35,202
SPROD,6681702227.jpg,33,1,4,0,VJTTJN G HAIR,cutting hair,/cutting/ hair,2+,Subject-less Gerund Verb Phrase With Grammatically Well-Formed Object,NA,0,1,A woman is cutting a man's hair.,woman,cutting,hair,man/haircut,3,FED_20200205b_3T2,36,209
SPROD,6845394024.jpg,7,1,4,0,NOPT BRIUSHING TEETH,boy brushing teeth,boy /brushing /teeth,2+,"Subject and Gerund ""Newspaper Syntax""",0,0,0,A (young) boy is brushing his teeth.,boy,brushing,teeth,,3,FED_20200205b_3T2,37,216
SPROD,4896173039.jpg,22,1,4,0,EOMASN TEADFING BOOK,woman reading book,woman/ reading/ book,2+,"Subject and Gerund ""Newspaper Syntax""",0,0,0,A woman is reading a book.,woman,reading,book,outside,3,FED_20200205b_3T2,38,223
SPROD,150582765.jpg,105,2,8,0,ouctyre tajubg,picture taking,picture taking,2+,"Subject and Gerund ""Newspaper Syntax""",NA,0,0,A woman is taking a picture (with a camera).,woman,taking,picture,camera,4,FED_20191120d_3T2,2,14
SPROD,4511110810.jpg,89,2,8,0,bkiwubg bybbkes,blowing bubbles,/blowing /bubbles,2+,Subject-less Gerund Verb Phrase With Grammatically Well-Formed Object,NA,0,1,A man is blowing bubbles.,man,blowing,bubbles,,4,FED_20191120d_3T2,3,21
SPROD,3686889377.jpg,121,2,8,0,making food,making food,/making /food,2+,Subject-less Gerund Verb Phrase With Grammatically Well-Formed Object,NA,0,1,A woman is washing the dishes.,woman,washing,dishes,kitchen sink,4,FED_20191120d_3T2,4,28
SPROD,4895017117.jpg,92,2,8,0,accuming,vacuuming,vacuuming,1,Gerund,NA,0,NA,A man is vacuuming (a bedroom).,man,vacuuming,room,floor/carpet,4,FED_20191120d_3T2,5,35
SPROD,44419435.jpg,76,2,8,0,sitting playing piano,sitting,sitting,1,Gerund,NA,0,NA,A young girl is sitting on a railing.,girl,sitting,,railing,4,FED_20191120d_3T2,47,260
SPROD,5293561716.jpg,116,2,8,0,chopping wood,playing piano,/playing /piano,2+,"Subject-less Gerund Phrase ""Newspaper Headline Syntax"" Object",NA,0,0,A (young) boy is playing the piano.,boy,playing,piano,,4,FED_20191120d_3T2,48,267
SPROD,4842516865.jpg,94,2,8,0,reading while,chopping wood,/chopping/ wood,2+,Subject-less Gerund Verb Phrase With Grammatically Well-Formed Object,NA,0,1,A man is chopping wood.,man,chopping,wood,axe,4,FED_20191120d_3T2,49,274
SPROD,4572715888.jpg,74,2,8,0,waiting for train,reading while waiting for train,/reading/ while waiting for train,2+,"Subject-less Gerund Phrase ""Newspaper Headline Syntax"" Object",NA,0,0,A man is reading a book (while waiting for the train).,man,reading,book,subway/train,4,FED_20191120d_3T2,50,281
SPROD,3808935147.jpg,106,2,2,0,kidss jmping on a trampoline,kids jumping on a trampoline,kids/ jumping /on a trampoline,2+,Subject and Gerund Well-Formed,1,0,1,Two boys are jumping on a trampoline.,boys,jumping,,trampoline,2,FED_20191120c_3T2,22,116
SPROD,3652094744.jpg,65,2,2,0,kid watering a maple,kid watering a maple,kid /watering/ a maple,2+,"Subject and Gerund ""Newspaper Syntax""",0,0,1,A (little) boy is watering a plant.,boy,watering,plant,,2,FED_20191120c_3T2,23,123
SPROD,5334523454.jpg,120,2,2,0,shirtlesss kid holding a bird,shirtless kid holding a bird,shirtless kid /holding /a bird,2+,"Subject and Gerund ""Newspaper Syntax""",0,0,1,A boy is holding a bird in his hands.,boy,holding,bird,hands,2,FED_20191120c_3T2,24,130
SPROD,4555514125.jpg,86,2,2,0,man pshbj ga couch through sidewalk,man pushing a couch through sidewalk,man /pushing/ a couch through sidewalk,2+,"Subject and Gerund ""Newspaper Syntax""",0,0,0,A man is pushing a couch down a street/sidewalk.,man,pushing,couch,sidewalk/street,2,FED_20191120c_3T2,25,137
SPROD,4842516865.jpg,94,2,2,0,man xcutting logs,man cutting logs,man /cutting logs,2+,"Subject and Gerund ""Newspaper Syntax""",0,0,1,A man is chopping wood.,man,chopping,wood,axe,2,FED_20191120c_3T2,27,158
SPROD,7119846943.jpg,75,2,2,0,little girl hoola hooping,little girl hula-hooping,little girl /hula-hooping/,2+,"Subject and Gerund ""Newspaper Syntax""",0,0,NA,A girl is hula-hooping.,girl,hula-hooping,,,2,FED_20191120c_3T2,28,165
SPROD,8189395281.jpg,111,2,2,0,girl doing stuffn idk,girl doing stuff idk,girl /doing/ stuff idk,2+,"Subject and Gerund ""Newspaper Syntax""",0,0,1,A woman is roller skating.,woman,roller skating,,indoors,2,FED_20191120c_3T2,29,172
SPROD,2047030603.jpg,82,2,2,0,man pushing carts,man pushing carts,man /pushing/ carts,2+,"Subject and Gerund ""Newspaper Syntax""",0,0,1,A man is pushing a cart full of grocery bags.,man,pushing,cart,bags,2,FED_20191120c_3T2,30,179
SPROD,36979.jpg,66,2,6,0,[p[;r [;somj [p;rt,??,??,Unknown,Unknown,Unknown,Unknown,Unknown,A group of people are playing poker.,group,playing,poker,,6,FED_20200213b_3T2,6,44
SPROD,4786057236.jpg,78,2,6,0,",sm ;smr xpdytirm",man ?? ??,man ?? ??,Unknown,Unknown,0,NA,NA,A man is playing the accordion.,man,playing,accordion,,6,FED_20200213b_3T2,7,51
SPROD,4715971264.jpg,88,2,6,0,j[u hoffoomh,man juggling,man/ juggling/,2+,"Subject and Gerund ""Newspaper Syntax""",0,0,NA,A (young) man is juggling (three balls).,man,juggling,balls,,6,FED_20200213b_3T2,8,58
SPROD,5194027799.jpg,79,2,6,0,hor; [phm ]o]]oy,girl holding puppy,girl/ holding/ puppy,2+,"Subject and Gerund ""Newspaper Syntax""",0,0,0,A woman is holding a puppy.,woman,holding,puppy,,6,FED_20200213b_3T2,9,65
SPROD,12142386.jpg,91,2,6,0,"s ,.sm od jogg;omh",man is juggling,man/ is juggling/,2+,"Subject and Tensed Gerund Verb ""Newspaper Syntax""",0,1,NA,A man is juggling balls.,man,juggling,balls,,6,FED_20200213b_3T2,43,230
SPROD,4610962283.jpg,97,2,6,0,"as pw,am os [;auomh hard",a woman is playing harp,a woman/ is playing/ harp,2+,"Subject and Tensed Gerund Verb ""Newspaper Syntax""",1,1,0,A woman is playing the harp.,woman,playing,harp,,6,FED_20200213b_3T2,44,237
SPROD,4436749692.jpg,68,2,6,0,"a ,.am os teradomh a[er",a man is reading paper,a man /is reading/ paper,2+,"Subject and Tensed Gerund Verb ""Newspaper Syntax""",1,1,0,A man is reading the newspaper.,man,reading,newspaper,,6,FED_20200213b_3T2,45,244
SPROD,3719712280.jpg,98,2,6,0,"a erspm os [;auomh i;yo,syr",a person is playing frisbee,a person /is playing/ frisbee,2+,Subject and Tensed Gerund Verb Well Formed,1,1,1,A woman is diving to catch a frisbee.,woman,diving/catching,frisbee,,6,FED_20200213b_3T2,46,251
SPROD,4786057236.jpg,78,2,1,0,nfu od hjfuom fj,man is playing ??,man/ is playing/ ??,Unknown,Unknown,0,1,Unknown,A man is playing the accordion.,man,playing,accordion,,6,FED_20191204a_3T2,2,14
SPROD,28144507.jpg,96,2,1,0,bfu od efdhi,man is ??,man/ is/ ??,Unknown,Unknown,0,1,Unknown,A man is washing windows.,man,washing,windows,,6,FED_20191204a_3T2,3,21
SPROD,41105465.jpg,80,2,1,0,bfu of bylnifiom,man is ??,man /is/ ??,Unknown,Unknown,0,1,Unknown,A man is meditating in a park.,man,meditating,,park,6,FED_20191204a_3T2,4,28
SPROD,7742281954.jpg,85,2,1,0,pkleuing df[,playing ??,/playing/ ??,Unknown,Unknown,NA,0,Unknown,A man is playing the saxophone.,man,playing,saxophone,outside/garden,6,FED_20191204a_3T2,5,35
SPROD,6160193920.jpg,90,2,1,0,ijnfu eo cvili,woman is ??,woman/ is/ ??,Unknown,Unknown,0,1,Unknown,A woman is smiling/laughing.,woman,smiling/laughing,,,6,FED_20191204a_3T2,47,260
SPROD,5506407501.jpg,87,2,1,0,vfu opd orjinin,man is ironing,man/ is ironing/,2+,"Subject and Tensed Gerund Verb ""Newspaper Syntax""",0,1,NA,A man is ironing a shirt.,man,ironing,shirt,,6,FED_20191204a_3T2,48,267
SPROD,4895017117.jpg,92,2,1,0,vfu pd vfcuuming,man is vacuuming,man/ is vacuuming/,2+,"Subject and Tensed Gerund Verb ""Newspaper Syntax""",0,1,NA,A man is vacuuming (a bedroom).,man,vacuuming,room,floor/carpet,6,FED_20191204a_3T2,49,274
SPROD,8189395281.jpg,111,2,1,0,ijbfu pd rjkkt,woman is roller,woman /is roller/,2+,"Subject and Tensed Gerund Verb ""Newspaper Syntax""",0,1,NA,A woman is roller skating.,woman,roller skating,,indoors,6,FED_20191204a_3T2,50,281
SPROD,4050265867.jpg,18,1,11,0,YAWNING,yawning,yawning,1,Gerund,NA,0,NA,A baby is yawning.,baby,yawning,,,5,FED_20191204b_3T2,14,72
SPROD,33256003.jpg,36,1,11,0,PUTTING ON LIPSTICK,putting on lipstick,putting/ on lipstick,2+,Subject-less Gerund Verb Phrase With Grammatically Well-Formed Object,NA,0,1,A woman is applying lipstick.,woman,applying,lipstick,,5,FED_20191204b_3T2,15,79
SPROD,55903788.jpg,2,1,11,0,BRAIDING HAIR,braiding hair,/braiding /hair,2+,Subject-less Gerund Verb Phrase With Grammatically Well-Formed Object,NA,0,1,A woman brushes another woman's hair.,woman,brushes,hair,woman,5,FED_20191204b_3T2,16,86
SPROD,6237339784.jpg,30,1,11,0,CLIMBING A TREE,climbing a tree,/climbing/ a tree,2+,Subject-less Gerund Verb Phrase With Grammatically Well-Formed Object,NA,0,1,A boy/kid/child is sitting in a tree.,boy,sitting,,tree/branch,5,FED_20191204b_3T2,17,93
SPROD,3665441862.jpg,43,1,11,0,CLIMBING A FENCE,climbing a fence,/climbing/ a fence,2+,Subject-less Gerund Verb Phrase With Grammatically Well-Formed Object,NA,0,1,A young girl is climbing a fence.,girl,climbing,fence,,5,FED_20191204b_3T2,35,202
SPROD,35268263.jpg,60,1,11,0,SEWING AN OUTFIT,sewing an outfit,/sewing /an outfit,2+,Subject-less Gerund Verb Phrase With Grammatically Well-Formed Object,NA,0,1,A woman is sewing (on her sewing machine).,woman,sewing/using,sewing machine,,5,FED_20191204b_3T2,36,209
SPROD,5194023863.jpg,28,1,11,0,HOLDING SOMETHIHNG,holding somethihng,/holding/ somethihng,2+,Subject-less Gerund Verb Phrase With Grammatically Well-Formed Object,NA,0,1,A (little) girl is holding a snail.,girl,holding,snail,,5,FED_20191204b_3T2,37,216
SPROD,6237869128.jpg,63,1,11,0,PUTTING ON SHOES,putting on shoes,/putting/ on shoes,2+,Subject-less Gerund Verb Phrase With Grammatically Well-Formed Object,NA,0,1,A woman is putting on a boot.,woman,putting on,boot,floor,5,FED_20191204b_3T2,38,223
SPROD,150582765.jpg,105,2,10,0,"yjr eom,snid phoyogtspjiomh dom,ryhing",the woman is photographing something,the woman /is photographing/ something,2+,Subject and Tensed Gerund Verb Well Formed,1,1,1,A woman is taking a picture (with a camera).,woman,taking,picture,camera,4,FED_20191120b_3T2,10,58
SPROD,4511110810.jpg,89,2,10,0,thr msn id bloeingh bubbblrd,the man is blowing bubbles,the man /is blowing/ bubbles,2+,Subject and Tensed Gerund Verb Well Formed,1,1,1,A man is blowing bubbles.,man,blowing,bubbles,,4,FED_20191120b_3T2,11,65
SPROD,3686889377.jpg,121,2,10,0,yhr eomsn id esdhimhn domryhinh,the woman is washing dishes,the woman /is washing/ dishes,2+,"Subject and Tensed Gerund Verb ""Newspaper Syntax""",1,1,0,A woman is washing the dishes.,woman,washing,dishes,kitchen sink,4,FED_20191120b_3T2,12,72
SPROD,4895017117.jpg,92,2,10,0,"th rmsn id bsvuum,inh",the man is vacuuming,the man/ is vacuuming/,2+,Subject and Tensed Gerund Verb Well Formed,1,1,NA,A man is vacuuming (a bedroom).,man,vacuuming,room,floor/carpet,4,FED_20191120b_3T2,13,79
SPROD,44419435.jpg,76,2,10,0,tj gor; os sottiomg pf tj enameoser,the girl is sitting on the ??,the girl /is sitting /on the ??,2+,Incomplete,1,1,Incomplete,A young girl is sitting on a railing.,girl,sitting,,railing,4,FED_20191120b_3T2,39,216
SPROD,5293561716.jpg,116,2,10,0,tje npu os[aomgm[oamp,the boy is playing piano,the boy /is playing/ piano,2+,"Subject and Tensed Gerund Verb ""Newspaper Syntax""",1,1,0,A (young) boy is playing the piano.,boy,playing,piano,,4,FED_20191120b_3T2,40,223
SPROD,4842516865.jpg,94,2,10,0,"tje ,am os cjp[[omg wppd",the man is chopping wood,the man/ is chopping/ wood,2+,Subject and Tensed Gerund Verb Well Formed,1,1,1,A man is chopping wood.,man,chopping,wood,axe,4,FED_20191120b_3T2,41,230
SPROD,4572715888.jpg,74,2,10,0,"tje ,amos readomganppl",the man is reading a book,the man /is reading /a book,2+,Subject and Tensed Gerund Verb Well Formed,1,1,1,A man is reading a book (while waiting for the train).,man,reading,book,subway/train,4,FED_20191120b_3T2,42,237
SPROD,3677329561.jpg,27,1,3,0,two girls are washing a dog by white vehicle,two girls are washing a dog by white vehicle,two girls /are washing/ a dog by white vehicle,2+,"Subject and Tensed Gerund Verb ""Newspaper Syntax""",1,1,0,Two girls are washing a dog.,girls,washing,dog,outside,3,FED_20200205a_3T2,18,102
SPROD,4580613274.jpg,34,1,3,0,a man is sweeping stairs among greenergy,a man is sweeping stairs among greenery,a man/ is sweeping/ stairs among greenery,2+,Subject and Tensed Gerund Verb Well Formed,1,1,1,A man is sweeping the steps.,man,sweeping,steps,,3,FED_20200205a_3T2,19,109
SPROD,2667549961.jpg,10,1,3,0,a baby is cawling on floor near plastic bottle,a baby is crawling on floor near plastic bottle,a baby/ is crawling/ on floor near plastic bottle,2+,"Subject and Tensed Gerund Verb ""Newspaper Syntax""",1,1,0,A baby is crawling (on a floor toward a water bottle).,baby,crawling,,floor/bottle,3,FED_20200205a_3T2,20,116
SPROD,4772785237.jpg,25,1,3,0,a man is sweeping sidewalk,a man is sweeping sidewalk,a man/ is sweeping/ sidewalk,2+,"Subject and Tensed Gerund Verb ""Newspaper Syntax""",1,1,0,A man is sweeping the sidewalk.,man,sweeping,sidewalk,,3,FED_20200205a_3T2,21,123
SPROD,4387675829.jpg,14,1,3,0,a girl is playing with model train track\,a girl is playing with model train track,a girl /is playing/ with model train track,2+,"Subject and Tensed Gerund Verb ""Newspaper Syntax""",1,1,0,A girl is playing with a toy train.,girls,playing,,toy train,3,FED_20200205a_3T2,31,172
SPROD,3672940355.jpg,12,1,3,0,a girl is kicking a ball,a girl is kicking a ball,a girl /is kicking/ a ball,2+,Subject and Tensed Gerund Verb Well Formed,1,1,1,A young girl is kicking a ball.,girl,kicking,ball,outside/yard/grass,3,FED_20200205a_3T2,32,179
SPROD,807129.jpg,47,1,3,0,a man is playing a flute outside,a man is playing a flute outside,a man/ is playing/ a flute outside,2+,Subject and Tensed Gerund Verb Well Formed,1,1,1,A man is playing the flute.,man,playing/sitting,flute,outside,3,FED_20200205a_3T2,33,186
SPROD,6237339784.jpg,30,1,3,0,a kid is straddling a tree branch,a kid is straddling a tree branch,a kid/ is straddling/ a tree branch,2+,Subject and Tensed Gerund Verb Well Formed,1,1,1,A boy/kid/child is sitting in a tree.,boy,sitting,,tree/branch,3,FED_20200205a_3T2,34,193
SPROD,12142386.jpg,91,2,3,0,man juggling balls,man juggling balls,man /juggling/ balls,2+,"Subject and Gerund ""Newspaper Syntax""",0,0,1,A man is juggling balls.,man,juggling,balls,,3,FED_20191120c_3T2,18,102
SPROD,4968012871.jpg,72,2,3,0,a women gholding a chicken,a women holding a chicken,a women/ holding /a chicken,2+,Subject and Gerund Well-Formed,1,0,1,A woman is holding a chicken/rooster.,woman,holding,chicken/rooster,,3,FED_20191120c_3T2,19,109
SPROD,3549408779.jpg,109,2,3,0,a doggo swimming in a pool,a doggo swimming in a pool,a doggo /swimming/ in a pool,2+,Subject and Gerund Well-Formed,1,0,1,A dog is swimming (in a pool).,dog,swimming,,pool/water,3,FED_20191120c_3T2,20,116
SPROD,5505219003.jpg,128,2,3,0,"a m,am sp;viomg a;gebra",a man solving algebra,a man /solving/ algebra,2+,Subject and Gerund Well-Formed,1,0,1,A man is writing on a chalkboard.,man,writing,equations,chalkboard,3,FED_20191120c_3T2,21,123
SPROD,4436749692.jpg,68,2,3,0,a man readubg a bewsoaoer,a man reading a newspaper,a man /reading /a newspaper,2+,Subject and Gerund Well-Formed,1,0,1,A man is reading the newspaper.,man,reading,newspaper,,3,FED_20191120c_3T2,31,172
SPROD,4322110026.jpg,101,2,3,0,a man sgavubg,a man shaving,a man/ shaving/,2+,Subject and Gerund Well-Formed,1,0,NA,A man is shaving his face.,man,shaving,face,,3,FED_20191120c_3T2,32,179
SPROD,4986581949.jpg,81,2,3,0,a woman riding the subway,a woman riding the subway,a woman /riding/ the subway,2+,Subject and Gerund Well-Formed,1,0,1,A woman is sitting on the subway.,woman,sitting,subway,,3,FED_20191120c_3T2,33,186
SPROD,8057415401.jpg,118,2,3,0,two men playing checkers,two men playing checkers,two men /playing/ checkers,2+,Subject and Gerund Well-Formed,1,0,1,Two men are playing checkers.,men,playing,checkers,,3,FED_20191120c_3T2,34,193
SPROD,4580613274.jpg,34,1,12,0,",am qwalkimnf",man walking,man /walking/,2+,"Subject-less Gerund Phrase ""Newspaper Headline Syntax"" Object",NA,0,NA,A man is sweeping the steps.,man,sweeping,steps,,1,FED_20200130a_3T2,18,86
SPROD,7579008108.jpg,53,1,12,0,kumpomh,jumping,jumping,1,Gerund,NA,0,NA,A man is jumping (off a rock/cliff) into the water.,man,jumping,,cliff/water/ocean/water,1,FED_20200130a_3T2,19,93
SPROD,4696829163.jpg,54,1,12,0,cjaild,child,child,1,Noun,NA,NA,NA,A boy is holding up a fish (he caught).,boy,holding,fish,caught,1,FED_20200130a_3T2,20,100
SPROD,4705826062.jpg,49,1,12,0,eayimng ice,eating ice,/eating/ ice,2+,Subject-less Gerund Verb Phrase With Grammatically Well-Formed Object,NA,0,1,A man is eating an ice cream cone.,man,eating,ice cream cone,,1,FED_20200130a_3T2,21,107
SPROD,6882674785.jpg,20,1,12,0,uhsseirn mfirl,?? Girl,?? Girl,2+,Incomplete,Incomplete,Incomplete,Incomplete,A little girl is blowing bubbles.,girl,blowing,bubbles,,1,FED_20200130a_3T2,31,188
SPROD,3677329561.jpg,27,1,12,0,deomfih pettimh,washing pet,/washing/ pet,2+,"Subject-less Gerund Phrase ""Newspaper Headline Syntax"" Object",NA,0,0,Two girls are washing a dog.,girls,washing,dog,outside,1,FED_20200130a_3T2,32,195
SPROD,4585839343.jpg,44,1,12,0,giorl dloewer,girl blow,girl /blow/,2+,"Subject and Non-Gerund Verb ""Newspaper Syntax""",0,0,NA,A woman is blowing on a dandelion.,woman,blowing,dandelion/flower,field,1,FED_20200130a_3T2,33,202
SPROD,6845394024.jpg,7,1,12,0,nou nhridh,boy brush,boy /brush/,2+,"Subject and Non-Gerund Verb ""Newspaper Syntax""",0,0,NA,A (young) boy is brushing his teeth.,boy,brushing,teeth,,1,FED_20200130a_3T2,34,209
SPROD,36979.jpg,66,2,6,0,cards,cards,cards,1,Noun,NA,NA,NA,A group of people are playing poker.,group,playing,poker,,6,FED_20191120d_3T2,6,44
SPROD,4786057236.jpg,78,2,6,0,playing piano thing,playing piano thing,/playing/ piano thing,2+,"Subject-less Gerund Phrase ""Newspaper Headline Syntax"" Object",NA,0,0,A man is playing the accordion.,man,playing,accordion,,6,FED_20191120d_3T2,7,51
SPROD,4715971264.jpg,88,2,6,0,juggling,juggling,juggling,1,Gerund,NA,0,NA,A (young) man is juggling (three balls).,man,juggling,balls,,6,FED_20191120d_3T2,8,58
SPROD,5194027799.jpg,79,2,6,0,holding a small dog,holding a small dog,/holding/ a small dog,2+,Subject-less Gerund Verb Phrase With Grammatically Well-Formed Object,NA,0,1,A woman is holding a puppy.,woman,holding,puppy,,6,FED_20191120d_3T2,9,65
SPROD,12142386.jpg,91,2,6,0,juggling,juggling,juggling,1,Gerund,NA,0,NA,A man is juggling balls.,man,juggling,balls,,6,FED_20191120d_3T2,43,230
SPROD,4610962283.jpg,97,2,6,0,playing the harp,playing the harp,/playing/ the harp,2+,Subject-less Gerund Verb Phrase With Grammatically Well-Formed Object,NA,0,1,A woman is playing the harp.,woman,playing,harp,,6,FED_20191120d_3T2,44,237
SPROD,4436749692.jpg,68,2,6,0,reading the newspaper,reading the newspaper,/reading /the newspaper,2+,Subject-less Gerund Verb Phrase With Grammatically Well-Formed Object,NA,0,1,A man is reading the newspaper.,man,reading,newspaper,,6,FED_20191120d_3T2,45,244
SPROD,3719712280.jpg,98,2,6,0,diving for a frisbee,diving for a frisbee,/diving /for a frisbee,2+,Subject-less Gerund Verb Phrase With Grammatically Well-Formed Object,NA,0,1,A woman is diving to catch a frisbee.,woman,diving/catching,frisbee,,6,FED_20191120d_3T2,46,251
SPROD,5669914204.jpg,13,1,5,0,0,0,0,?,?,?,?,?,A (young) boy is looking through a telescope.,boy,looking,,telescope,2,FED_20200205b_3T2,10,58
SPROD,5840187633.jpg,35,1,5,0,0,0,0,?,?,?,?,?,A little girl is walking on a treadmill.,girl,walking,,treadmill,2,FED_20200205b_3T2,11,65
SPROD,7995263133.jpg,64,1,5,0,0,0,0,?,?,?,?,?,A young boy is sleeping (on a striped pillow).,boy,sleeping,,pillow,2,FED_20200205b_3T2,12,72
SPROD,6225280494.jpg,9,1,5,0,0,0,0,?,?,?,?,?,A man is jumping over a hurdle.,man,jumping,,hurdle,2,FED_20200205b_3T2,13,79
SPROD,6354735653.jpg,62,1,5,0,0,0,0,?,?,?,?,?,A man is rock climbing.,man,rock climbing,,cliff/rock,2,FED_20200205b_3T2,39,216
SPROD,4789495327.jpg,31,1,5,0,0,0,0,?,?,?,?,?,A woman is talking on a cell phone.,woman,talking,,cell phone,2,FED_20200205b_3T2,40,223
SPROD,3672940355.jpg,12,1,5,0,0,0,0,?,?,?,?,?,A young girl is kicking a ball.,girl,kicking,ball,outside/yard/grass,2,FED_20200205b_3T2,41,230
SPROD,4607606901.jpg,3,1,5,0,0,0,0,?,?,?,?,?,A (young) girl is petting a deer.,girl,petting,deer,,2,FED_20200205b_3T2,42,237
SPROD,6915574150.jpg,6,1,6,0,GIRL WITH TOOTHBRIS,girl with toothbrush,girl// with toothbrush,2+,Noun Phrase,0,NA,0,A toddler is holding a toothbrush.,toddler,holding,toothbrush,,6,FED_20191204c_3T2,6,44
SPROD,5220880759.jpg,16,1,6,0,MAND IN SHJWER,man in shower,man// in shower,2+,Noun Phrase,0,NA,0,A man is taking a shower.,man,taking,shower,,6,FED_20191204c_3T2,7,51
SPROD,35268263.jpg,60,1,6,0,WAMOA SWEIGMN,woman sewing,woman /sewing/,2+,"Subject and Gerund ""Newspaper Syntax""",0,0,NA,A woman is sewing (on her sewing machine).,woman,sewing/using,sewing machine,,6,FED_20191204c_3T2,8,58
SPROD,6303184938.jpg,58,1,6,0,"KAJ AT K,VIRSC0-RE",man at microscope,man //at microscope,2+,Noun Phrase,0,NA,0,A man is looking through a microscope.,man,looking,microscope,,6,FED_20191204c_3T2,9,65
SPROD,3819214047.jpg,59,1,6,0,NOT SLATIONG,boy sitting,boy /sitting/,2+,"Subject and Gerund ""Newspaper Syntax""",0,0,NA,A boy/man is sitting on his skateboard.,man,sitting,,skateboard,6,FED_20191204c_3T2,43,230
SPROD,5584269779.jpg,57,1,6,0,R99EJG A HF0RSE,riding a horse,/riding/ a horse,2+,Subject-less Gerund Verb Phrase With Grammatically Well-Formed Object,NA,0,1,A woman is riding a horse.,woman,riding,horse,,6,FED_20191204c_3T2,44,237
SPROD,3665441862.jpg,43,1,6,0,"G9RP CA,0MG FEJMMCE",girl climbing fence,girl /climbing /fence,2+,"Subject and Gerund ""Newspaper Syntax""",0,0,0,A young girl is climbing a fence.,girl,climbing,fence,,6,FED_20191204c_3T2,45,244
SPROD,33256003.jpg,36,1,6,0,"WA,MNF DOPOMG ;O[STA",woman applying lipstick,woman /applying /lipstick,2+,"Subject and Gerund ""Newspaper Syntax""",0,0,1,A woman is applying lipstick.,woman,applying,lipstick,,6,FED_20191204c_3T2,46,251
SPROD,5283494184.jpg,107,2,3,0,mfi pg bljp,?? Is blow,?? Is/ blow/,Unknown,Unknown,Unknown,Unknown,Unknown,A woman is blowing leaves (with a leaf blower).,woman,blowing,leaves,leaf blower,4,FED_20191204a_3T2,18,102
SPROD,4753970630.jpg,122,2,3,0,";mik pg lim[,i",girl is jumping,girl /is jumping/,2+,"Subject and Tensed Gerund Verb ""Newspaper Syntax""",0,1,NA,A little girl is jumping into a pool.,girl,jumping,,pool,4,FED_20191204a_3T2,19,109
SPROD,4842516865.jpg,94,2,3,0,"b fi mpm ;yo,l",??,??,Unknown,Unknown,Unknown,Unknown,Unknown,A man is chopping wood.,man,chopping,wood,axe,4,FED_20191204a_3T2,20,116
SPROD,5925544950.jpg,125,2,3,0,romgi pg,??,??,Unknown,Unknown,Unknown,Unknown,Unknown,A woman is fishing.,woman,fishing,,lake/river/pond,4,FED_20191204a_3T2,21,123
SPROD,4858197102.jpg,103,2,3,0,2,2,2,?,?,?,?,?,A man is holding a (newborn) baby.,man,holding,baby,,4,FED_20191204a_3T2,31,172
SPROD,5505219003.jpg,128,2,3,0,d nfiu on hjklnu,??,??,Unknown,Unknown,Unknown,Unknown,Unknown,A man is writing on a chalkboard.,man,writing,equations,chalkboard,4,FED_20191204a_3T2,32,179
SPROD,4445547327.jpg,112,2,3,0,bdi pf euounim d,girl is playing,girl/ is playing/,2+,"Subject and Tensed Gerund Verb ""Newspaper Syntax""",0,1,NA,A (young) girl is playing the violin.,girl,playing,violin,,4,FED_20191204a_3T2,33,186
SPROD,2763354860.jpg,127,2,3,0,loyk og plduiomh,girl is climbing,girl/ is climbing/,2+,"Subject and Tensed Gerund Verb ""Newspaper Syntax""",0,1,NA,A (young) girl is rock climbing.,girl,rock climbing,,,4,FED_20191204a_3T2,34,193
SPROD,4858197102.jpg,103,2,8,0,i0pd9jg hsh7,holding baby,/holding/ baby,2+,"Subject-less Gerund Phrase ""Newspaper Headline Syntax"" Object",NA,0,0,A man is holding a (newborn) baby.,man,holding,baby,,2,FED_20200130c_3T2,2,14
SPROD,4597303045.jpg,73,2,8,0,dk9o9jg,smoking,smoking,1,Gerund,NA,0,NA,A man is smoking a pipe (on a rock).,man,smoking,pipe,rock/beach/water,2,FED_20200130c_3T2,3,21
SPROD,12142386.jpg,91,2,8,0,o8ddp9jg,juggling,juggling,1,Gerund,NA,0,NA,A man is juggling balls.,man,juggling,balls,,2,FED_20200130c_3T2,4,28
SPROD,23770160.jpg,113,2,8,0,ps89jg u89tat,playing guitar,/playing /guitar,2+,"Subject-less Gerund Phrase ""Newspaper Headline Syntax"" Object",NA,0,0,A man is playing guitar.,man,playing,guitar,grass/outside,2,FED_20200130c_3T2,5,35
SPROD,3808935147.jpg,106,2,8,0,u8kl- j tra0,??,??,Unknown,Unknown,Unknown,Unknown,Unknown,Two boys are jumping on a trampoline.,boys,jumping,,trampoline,2,FED_20200130c_3T2,47,260
SPROD,2889481764.jpg,123,2,8,0,-t9jfg a -8tc8te,painting a castle,/painting /a castle,2+,Subject-less Gerund Verb Phrase With Grammatically Well-Formed Object,NA,0,1,A man is painting a castle.,man,painting,castle,,2,FED_20200130c_3T2,48,267
SPROD,4842516865.jpg,94,2,8,0,cua--9jf e00d,chopping wood,/chopping/ wood,2+,Subject-less Gerund Verb Phrase With Grammatically Well-Formed Object,NA,0,1,A man is chopping wood.,man,chopping,wood,axe,2,FED_20200130c_3T2,49,274
SPROD,4572715888.jpg,74,2,8,0,read9jf a h99i,reading a book,/reading/ a book,2+,Subject-less Gerund Verb Phrase With Grammatically Well-Formed Object,NA,0,1,A man is reading a book (while waiting for the train).,man,reading,book,subway/train,2,FED_20200130c_3T2,50,281
SPROD,36979.jpg,66,2,12,0,people are playing cards,people are playing cards,people /are playing/ cards,2+,Subject and Tensed Gerund Verb Well Formed,1,1,1,A group of people are playing poker.,group,playing,poker,,6,FED_20191120b_3T2,18,86
SPROD,4786057236.jpg,78,2,12,0,man is playing somethiung lol,man is playing something lol,man/ is playing/ something lol,2+,"Subject and Tensed Gerund Verb ""Newspaper Syntax""",0,1,1,A man is playing the accordion.,man,playing,accordion,,6,FED_20191120b_3T2,19,93
SPROD,4715971264.jpg,88,2,12,0,boy is juddffline,boy is juggling,boy/ is juggling/,2+,"Subject and Tensed Gerund Verb ""Newspaper Syntax""",0,1,NA,A (young) man is juggling (three balls).,man,juggling,balls,,6,FED_20191120b_3T2,20,100
SPROD,5194027799.jpg,79,2,12,0,the woman is holding a puppy,the woman is holding a puppy,the woman/ is holding/ a puppy,2+,Subject and Tensed Gerund Verb Well Formed,1,1,1,A woman is holding a puppy.,woman,holding,puppy,,6,FED_20191120b_3T2,21,107
SPROD,12142386.jpg,91,2,12,0,the mand is jufflinf,the man is juggling,the man/ is juggling/,2+,Subject and Tensed Gerund Verb Well Formed,1,1,NA,A man is juggling balls.,man,juggling,balls,,6,FED_20191120b_3T2,31,188
SPROD,4610962283.jpg,97,2,12,0,the owman is playing the harp,the owman is playing the harp,the owman /is playing/ the harp,2+,Subject and Tensed Gerund Verb Well Formed,1,1,1,A woman is playing the harp.,woman,playing,harp,,6,FED_20191120b_3T2,32,195
SPROD,4436749692.jpg,68,2,12,0,the man is reading the newspoaper,the man is reading the newspoaper,the man/is reading/ the newspoaper,2+,Subject and Tensed Gerund Verb Well Formed,1,1,1,A man is reading the newspaper.,man,reading,newspaper,,6,FED_20191120b_3T2,33,202
SPROD,3719712280.jpg,98,2,12,0,the woman is cathcing the firsbee,the woman is catching the frisbee,the woman/ is catching/ the frisbee,2+,Subject and Tensed Gerund Verb Well Formed,1,1,1,A woman is diving to catch a frisbee.,woman,diving/catching,frisbee,,6,FED_20191120b_3T2,34,209
SPROD,7579008108.jpg,53,1,1,0,a man is unna,a man is jump,a man/ is jump/,2+,Subject and Tensed Non-Gerund Verb ,1,0,NA,A man is jumping (off a rock/cliff) into the water.,man,jumping,,cliff/water/ocean/water,1,FED_20200205a_3T2,2,14
SPROD,6303184938.jpg,58,1,1,0,man looking through microscope,man looking through microscope,man /looking /through microscope,2+,"Subject and Gerund ""Newspaper Syntax""",0,0,0,A man is looking through a microscope.,man,looking,microscope,,1,FED_20200205a_3T2,3,21
SPROD,4688958106.jpg,8,1,1,0,two surgeons operating in orsome,two surgeons operating in ??,two surgeons /operating /in ??,?,Incomplete,1,0,Incomplete,Two doctors/surgeons are operating/performing surgery.,doctors/surgeons,operating/performing,surgery,,1,FED_20200205a_3T2,4,28
SPROD,4263999253.jpg,56,1,1,0,kids shoveling snow,kids shoveling snow,kids /shoveling/ snow,2+,Subject and Gerund Well-Formed,1,0,1,Two kids are shoveling snow.,kids,shoveling,snow,,1,FED_20200205a_3T2,5,35
SPROD,4766583860.jpg,38,1,1,0,girl on swing smiling with pigrtals,girl on swing smiling with pigtails,girl on swing/ smiling/ with pigtails,2+,"Subject and Gerund ""Newspaper Syntax""",0,0,1,A girl is swinging (on a swing).,girl,swinging,,swing set,1,FED_20200205a_3T2,47,260
SPROD,6915574150.jpg,6,1,1,0,young toddler is holding toothbrushe,young toddler is holding toothbrush,young toddler /is holding/ toothbrush,2+,"Subject and Tensed Gerund Verb ""Newspaper Syntax""",0,1,0,A toddler is holding a toothbrush.,toddler,holding,toothbrush,,1,FED_20200205a_3T2,48,267
SPROD,6596861005.jpg,17,1,1,0,woman is smilingn whilel ooking atmap overlooking river,woman is smiling while looking at map overlooking river,woman/ is smiling/ while looking at map overlooking river,2+,"Subject and Tensed Gerund Verb ""Newspaper Syntax""",0,1,0,A woman is reading a map.,woman,reading,map,water,1,FED_20200205a_3T2,49,274
SPROD,4678843953.jpg,32,1,1,0,man is thrwoing axe veryusly,man is throwing axe ??,man /is throwing/ axe ??,2+,Incomplete,0,1,Incomplete,A man is throwing an axe.,man,throwing,axe,,1,FED_20200205a_3T2,50,281
SPROD,4400746838.jpg,71,2,7,0,2,2,2,?,?,?,?,?,A young girl is covering her eyes.,girl,covering,eyes,hand,1,FED_20200130c_3T2,22,116
SPROD,5565536413.jpg,126,2,7,0,1,1,1,?,?,?,?,?,A man is painting a mural.,man,painting,mural,door,1,FED_20200130c_3T2,23,123
SPROD,150582765.jpg,105,2,7,0,2,2,2,?,?,?,?,?,A woman is taking a picture (with a camera).,woman,taking,picture,camera,1,FED_20200130c_3T2,24,130
SPROD,2047030603.jpg,82,2,7,0,sprsgr8s0,??,??,Unknown,Unknown,Unknown,Unknown,Unknown,A man is pushing a cart full of grocery bags.,man,pushing,cart,bags,1,FED_20200130c_3T2,25,137
SPROD,3673032164.jpg,117,2,7,0,dea8t,??,??,Unknown,Unknown,Unknown,Unknown,Unknown,Two girls are arm-wrestling.,girls,arm-wrestling,,,1,FED_20200130c_3T2,27,158
SPROD,36979.jpg,66,2,7,0,tureoofr,??,??,Unknown,Unknown,Unknown,Unknown,Unknown,A group of people are playing poker.,group,playing,poker,,1,FED_20200130c_3T2,28,165
SPROD,3549408779.jpg,109,2,7,0,Unintelligible,??,??,Unknown,Unknown,Unknown,Unknown,Unknown,A dog is swimming (in a pool).,dog,swimming,,pool/water,1,FED_20200130c_3T2,29,172
SPROD,5293561716.jpg,116,2,7,0,dshicy8cua8exi8rea8uieua8rdr7er,??,??,Unknown,Unknown,Unknown,Unknown,Unknown,A (young) boy is playing the piano.,boy,playing,piano,,1,FED_20200130c_3T2,30,179
SPROD,6596861005.jpg,17,1,10,0,",am readimfg",woman reading,woman /reading/,2+,"Subject and Gerund ""Newspaper Syntax""",0,0,NA,A woman is reading a map.,woman,reading,map,water,3,FED_20200130a_3T2,10,58
SPROD,3818278154.jpg,39,1,10,0,ec siercomh om nrs,?? On ??,?? On ??,Unknown,Unknown,Unknown,Unknown,Unknown,A group of people are doing yoga on a beach.,group,doing,yoga,beach,3,FED_20200130a_3T2,11,65
SPROD,35268263.jpg,60,1,10,0,jreadimg art hjome,reading at home,/reading/ at home,2+,Subject-less Gerund Verb Phrase With Grammatically Well-Formed Object,NA,0,1,A woman is sewing (on her sewing machine).,woman,sewing/using,sewing machine,,3,FED_20200130a_3T2,12,72
SPROD,6237869128.jpg,63,1,10,0,firl rrmg,girl ??,girl ??,Unknown,Unknown,Unknown,Unknown,Unknown,A woman is putting on a boot.,woman,putting on,boot,floor,3,FED_20200130a_3T2,13,79
SPROD,5584269779.jpg,57,1,10,0,gordetigiomgf,??,??,Unknown,Unknown,Unknown,Unknown,Unknown,A woman is riding a horse.,woman,riding,horse,,3,FED_20200130a_3T2,39,216
SPROD,126594141.jpg,26,1,10,0,"or dportim,h",??,??,Unknown,Unknown,Unknown,Unknown,Unknown,A woman is tying her shoe (on a soccer field).,woman,tying,shoe,field,3,FED_20200130a_3T2,40,223
SPROD,6303184938.jpg,58,1,10,0,",am ;oolimh im",man looking in,man/ looking/ in,2+,"Subject and Gerund ""Newspaper Syntax""",0,0,1,A man is looking through a microscope.,man,looking,microscope,,3,FED_20200130a_3T2,41,230
SPROD,4766583860.jpg,38,1,10,0,sirl sewomhimg,girl swinging,girl /swinging/,2+,"Subject and Gerund ""Newspaper Syntax""",0,0,NA,A girl is swinging (on a swing).,girl,swinging,,swing set,3,FED_20200130a_3T2,42,237
SPROD,3673032164.jpg,117,2,7,0,"jro;s are ar,wrest;omg",girls are arm-wrestling,girls/ are arm-wrestling/,2+,Subject and Tensed Gerund Verb Well Formed,1,1,NA,Two girls are arm-wrestling.,girls,arm-wrestling,,,1,FED_20191120b_3T2,22,116
SPROD,4753970630.jpg,122,2,7,0,"gor; kio.[om,g om, [p;",girl jumping in pool,girl/ jumping/ in pool,2+,"Subject and Gerund ""Newspaper Syntax""",0,0,0,A little girl is jumping into a pool.,girl,jumping,,pool,1,FED_20191120b_3T2,23,123
SPROD,4968012871.jpg,72,2,7,0,"wp,am jp;domg cjoclem",woman holding chicken,woman /holding/ chicken,2+,"Subject and Gerund ""Newspaper Syntax""",0,0,0,A woman is holding a chicken/rooster.,woman,holding,chicken/rooster,,1,FED_20191120b_3T2,24,130
SPROD,5334523454.jpg,120,2,7,0,npu jp;domg mord,boy holding bird,boy /holding/ bird,2+,"Subject and Gerund ""Newspaper Syntax""",0,0,0,A boy is holding a bird in his hands.,boy,holding,bird,hands,1,FED_20191120b_3T2,25,137
SPROD,6552971469.jpg,102,2,7,0,cjpirs somgomg spmgs,choir singing songs,choir /singing/ songs,2+,"Subject and Gerund ""Newspaper Syntax""",0,0,1,A choir is singing.,choir,singing,,,1,FED_20191120b_3T2,27,158
SPROD,104669470.jpg,70,2,7,0,"wp,ame carryomg naslet pf riot",woman carrying basket of fruit,woman /carrying/ basket of fruit,2+,"Subject and Gerund ""Newspaper Syntax""",0,0,0,A woman is carrying a bowl of fruit on her head.,woman,carrying,bowl,fruit/head,1,FED_20191120b_3T2,28,165
SPROD,4986581949.jpg,81,2,7,0,"wp,am rodomg tje sinwau",woman riding the subway,woman/ riding /the subway,2+,"Subject and Gerund ""Newspaper Syntax""",0,0,1,A woman is sitting on the subway.,woman,sitting,subway,,1,FED_20191120b_3T2,29,172
SPROD,28144507.jpg,96,2,7,0,",am wasjomg tje womdpws",man washing the windows,man /washing /the windows,2+,"Subject and Gerund ""Newspaper Syntax""",0,0,1,A man is washing windows.,man,washing,windows,,1,FED_20191120b_3T2,30,179
SPROD,6596861005.jpg,17,1,2,0,woman reads map,woman reads map,woman /reads/ map,2+,"Subject and Non-Gerund Verb ""Newspaper Syntax""",0,1,0,A woman is reading a map.,woman,reading,map,water,5,FED_20200130b_3T2,22,116
SPROD,6681702227.jpg,33,1,2,0,woman cuts mands hair,woman cuts man's hair,woman /cuts /man's hair,2+,"Subject and Non-Gerund Verb ""Newspaper Syntax""",0,1,0,A woman is cutting a man's hair.,woman,cutting,hair,man/haircut,5,FED_20200130b_3T2,23,123
SPROD,5543900069.jpg,40,1,2,0,woman dries hair,woman dries hair,woman /dries/ hair,2+,"Subject and Non-Gerund Verb ""Newspaper Syntax""",0,1,0,A woman is blowdrying her hair.,woman,blowdrying,hair,,5,FED_20200130b_3T2,24,130
SPROD,5840187633.jpg,35,1,2,0,treadmill,treadmill,treadmill,1,Noun,NA,NA,NA,A little girl is walking on a treadmill.,girl,walking,,treadmill,5,FED_20200130b_3T2,25,137
SPROD,5194023863.jpg,28,1,2,0,gil holds bigtass snail,girl holds big ass snail,girl /holds/ big ass snail,2+,"Subject and Non-Gerund Verb ""Newspaper Syntax""",0,1,0,A (little) girl is holding a snail.,girl,holding,snail,,5,FED_20200130b_3T2,27,158
SPROD,7579008108.jpg,53,1,2,0,person jumps from rock,person jumps from rock,person /jumps/ from rock,2+,"Subject and Non-Gerund Verb ""Newspaper Syntax""",0,1,0,A man is jumping (off a rock/cliff) into the water.,man,jumping,,cliff/water/ocean/water,5,FED_20200130b_3T2,28,165
SPROD,4705826062.jpg,49,1,2,0,man gcrosch ice cream,man ?? ice cream,man/ ?? /ice cream,Unknown,Unknown,0,NA,1,A man is eating an ice cream cone.,man,eating,ice cream cone,,5,FED_20200130b_3T2,29,172
SPROD,33256003.jpg,36,1,2,0,woman applies lipstick,woman applies lipstick,woman /applies/ lipstick,2+,"Subject and Non-Gerund Verb ""Newspaper Syntax""",0,1,1,A woman is applying lipstick.,woman,applying,lipstick,,5,FED_20200130b_3T2,30,179
SPROD,7188003.jpg,51,1,4,0,SO99JG,skiing,skiing,1,Gerund,NA,0,NA,A person is skiing down a steep slope.,person,skiing,slope,,4,FED_20191204c_3T2,14,72
SPROD,55903788.jpg,2,1,4,0,HR9SY9JGMRHA9R,?? Hair,?? Hair,Unknown,Unknown,Unknown,Unknown,Unknown,A woman brushes another woman's hair.,woman,brushes,hair,woman,4,FED_20191204c_3T2,15,79
SPROD,7028846053.jpg,42,1,4,0,HJ00DPES,noodles,noodles,1,Noun,NA,NA,NA,A woman is eating noodles (from a bowl).,woman,eating,noodles,bowl/chopsticks,4,FED_20191204c_3T2,16,86
SPROD,325742196.jpg,4,1,4,0,JGORPW TIJ TPIUR,??,??,Unknown,Unknown,Unknown,Unknown,Unknown,A little girl is playing with dolls/toys.,girl,playing,toys/dolls,,4,FED_20191204c_3T2,17,93
SPROD,4696829163.jpg,54,1,4,0,FISHING,fishing,fishing,1,Gerund,NA,0,NA,A boy is holding up a fish (he caught).,boy,holding,fish,caught,4,FED_20191204c_3T2,35,202
SPROD,807129.jpg,47,1,4,0,NMAN [A;POJMG F;IRE,man playing flute,man /playing/ flute,2+,"Subject and Gerund ""Newspaper Syntax""",0,0,0,A man is playing the flute.,man,playing/sitting,flute,outside,4,FED_20191204c_3T2,36,209
SPROD,7380263314.jpg,1,1,4,0,FOR;DOGOMG,girl digging,girl /digging/,2+,"Subject and Gerund ""Newspaper Syntax""",0,0,NA,A girl is digging sand at the beach.,girl,digging,sand,beach/shovel,4,FED_20191204c_3T2,37,216
SPROD,5241718422.jpg,19,1,4,0,KAJ R9JMGMFREEW,man running,man /running/,2+,"Subject and Gerund ""Newspaper Syntax""",0,0,NA,A man is running on a treadmill.,man,running,,treadmill,4,FED_20191204c_3T2,38,223
SPROD,3800306463.jpg,77,2,5,0,[mu j[fpmj vovo.nrtd,??,??,Unknown,Unknown,Unknown,Unknown,Unknown,A (little) boy is holding two large cucumbers.,boy,holding,cucumbers,,5,FED_20200213b_3T2,10,58
SPROD,7742281954.jpg,85,2,5,0,".s, ]suph, sddsc[]j[,r",man playing saxophone,man /playing/ saxophone,2+,"Subject and Gerund ""Newspaper Syntax""",0,0,0,A man is playing the saxophone.,man,playing,saxophone,outside/garden,5,FED_20200213b_3T2,11,65
SPROD,5925544950.jpg,125,2,5,0,"e[.s, hpdjkp,h [, s;r",??,??,Unknown,Unknown,Unknown,Unknown,Unknown,A woman is fishing.,woman,fishing,,lake/river/pond,5,FED_20200213b_3T2,12,72
SPROD,3808935147.jpg,106,2,5,0,"n[ud ]sp, [k, utys.][pr",??,??,Unknown,Unknown,Unknown,Unknown,Unknown,Two boys are jumping on a trampoline.,boys,jumping,,trampoline,5,FED_20200213b_3T2,13,79
SPROD,7119846943.jpg,75,2,5,0,"pht pd sp,j jos jp[[",??,??,Unknown,Unknown,Unknown,Unknown,Unknown,A girl is hula-hooping.,girl,hula-hooping,,,5,FED_20200213b_3T2,39,216
SPROD,4858197102.jpg,103,2,5,0,".sm, voffp,j msmi",man holding baby,man/holding/ baby,2+,"Subject and Gerund ""Newspaper Syntax""",0,0,0,A man is holding a (newborn) baby.,man,holding,baby,,5,FED_20200213b_3T2,40,223
SPROD,6338733.jpg,84,2,5,0,"e.s, k[p, dpj,",??,??,Unknown,Unknown,Unknown,Unknown,Unknown,A woman is holding a stop sign.,woman,holding,stop sign,,5,FED_20200213b_3T2,41,230
SPROD,5411504795.jpg,124,2,5,0,"hpt d,phhp, gs,frp[,",??,??,Unknown,Unknown,Unknown,Unknown,Unknown,A little girl is smelling a flower.,girl,smelling,flower,,5,FED_20200213b_3T2,42,237
SPROD,36979.jpg,66,2,1,0,ghd mdn zfd plzhyinb vzfcx,??,??,Unknown,Unknown,Unknown,Unknown,Unknown,A group of people are playing poker.,group,playing,poker,,1,FED_20191120c_3T2,2,14
SPROD,4572715888.jpg,74,2,1,0,z mzn ix in z xubszy,a man is in a subway,a man /is/ in a subway,2+,Subject and Non-Gerund Verb Well Formed,1,1,1,A man is reading a book (while waiting for the train).,man,reading,book,subway/train,1,FED_20191120c_3T2,3,21
SPROD,5293561716.jpg,116,2,1,0,kic plzhying oppaino,kid playing piano,kid/ playing /piano,2+,"Subject and Gerund ""Newspaper Syntax""",0,0,0,A (young) boy is playing the piano.,boy,playing,piano,,1,FED_20191120c_3T2,4,28
